 # temperature (K), theta (degree), phi (degree), abs for RE 1-2
     0.00000   180.00000   180.00000     4.39237   180.00000   180.00000     4.39237
     2.00000   180.00000   360.00000     4.39234   180.00000   360.00000     4.39234
     4.00000   180.00000   360.00000     4.39229   180.00000   360.00000     4.39229
     6.00000   180.00000   180.00000     4.39223   180.00000   180.00000     4.39223
     8.00000   180.00000   180.00000     4.39216   180.00000   180.00000     4.39216
    10.00000   180.00000   180.00000     4.39208   180.00000   180.00000     4.39208
    12.00000   180.00000   360.00000     4.39199   180.00000   360.00000     4.39199
    14.00000   180.00000   180.00000     4.39189   180.00000   180.00000     4.39189
    16.00000   180.00000   180.00000     4.39178   180.00000   180.00000     4.39178
    18.00000   180.00000   180.00000     4.39167   180.00000   180.00000     4.39167
    20.00000   180.00000   360.00000     4.39154   180.00000   360.00000     4.39154
    22.00000   180.00000   180.00000     4.39142   180.00000   180.00000     4.39142
    24.00000   180.00000   360.00000     4.39128   180.00000   360.00000     4.39128
    26.00000   180.00000   360.00000     4.39115   180.00000   360.00000     4.39115
    28.00000   180.00000   360.00000     4.39100   180.00000   360.00000     4.39100
    30.00000   180.00000   180.00000     4.39085   180.00000   180.00000     4.39085
    32.00000   180.00000   360.00000     4.39069   180.00000   360.00000     4.39069
    34.00000   180.00000   360.00000     4.39052   180.00000   360.00000     4.39052
    36.00000   180.00000   360.00000     4.39034   180.00000   360.00000     4.39034
    38.00000   180.00000   180.00000     4.39015   180.00000   180.00000     4.39015
    40.00000   180.00000   360.00000     4.38994   180.00000   360.00000     4.38994
    42.00000   180.00000   180.00000     4.38972   180.00000   180.00000     4.38972
    44.00000   180.00000   180.00000     4.38948   180.00000   180.00000     4.38948
    46.00000   180.00000   180.00000     4.38920   180.00000   180.00000     4.38920
    48.00000   180.00000   180.00000     4.38891   180.00000   180.00000     4.38891
    50.00000   180.00000   180.00000     4.38857   180.00000   180.00000     4.38857
    52.00000   180.00000   180.00000     4.38820   180.00000   180.00000     4.38820
    54.00000   180.00000   180.00000     4.38779   180.00000   180.00000     4.38779
    56.00000   180.00000   180.00000     4.38734   180.00000   180.00000     4.38734
    58.00000   180.00000   180.00000     4.38684   180.00000   180.00000     4.38684
    60.00000   180.00000   360.00000     4.38628   180.00000   360.00000     4.38628
    62.00000   180.00000   180.00000     4.38568   180.00000   180.00000     4.38568
    64.00000   180.00000   180.00000     4.38501   180.00000   180.00000     4.38501
    66.00000   180.00000   180.00000     4.38428   180.00000   180.00000     4.38428
    68.00000   180.00000   180.00000     4.38349   180.00000   180.00000     4.38349
    70.00000   180.00000   180.00000     4.38264   180.00000   180.00000     4.38264
    72.00000   180.00000   360.00000     4.38172   180.00000   360.00000     4.38172
    74.00000   180.00000   180.00000     4.38073   180.00000   180.00000     4.38073
    76.00000   180.00000   180.00000     4.37966   180.00000   180.00000     4.37966
    78.00000   180.00000   360.00000     4.37853   180.00000   360.00000     4.37853
    80.00000   180.00000   360.00000     4.37733   180.00000   360.00000     4.37733
    82.00000   180.00000   360.00000     4.37605   180.00000   360.00000     4.37605
    84.00000   180.00000   180.00000     4.37469   180.00000   180.00000     4.37469
    86.00000   180.00000   360.00000     4.37327   180.00000   360.00000     4.37327
    88.00000   180.00000   360.00000     4.37176   180.00000   360.00000     4.37176
    90.00000   180.00000   180.00000     4.37019   180.00000   180.00000     4.37019
    92.00000   180.00000   360.00000     4.36853   180.00000   360.00000     4.36853
