 # temperature (K), theta (degree), phi (degree), abs for RE 1-2
     0.00000     0.00000     0.00000     4.71318     0.00000     0.00000     4.71318
     2.00000     0.00000     0.00000     4.71317     0.00000     0.00000     4.71317
     4.00000     0.00000     0.00000     4.71315     0.00000     0.00000     4.71315
     6.00000     0.00000     0.00000     4.71312     0.00000     0.00000     4.71312
     8.00000     0.00000     0.00000     4.71309     0.00000     0.00000     4.71309
    10.00000     0.00000     0.00000     4.71305     0.00000     0.00000     4.71305
    12.00000     0.00000     0.00000     4.71301     0.00000     0.00000     4.71301
    14.00000     0.00000     0.00000     4.71296     0.00000     0.00000     4.71296
    16.00000     0.00000     0.00000     4.71291     0.00000     0.00000     4.71291
    18.00000     0.00000     0.00000     4.71286     0.00000     0.00000     4.71286
