 # temperature (K), theta (degree), phi (degree), abs for RE 1-2
     0.00000     0.00000     0.00000     0.28682     0.00000     0.00000     0.28682
     2.00000     0.00000     0.00000     0.28683     0.00000     0.00000     0.28683
     4.00000     0.00000     0.00000     0.28685     0.00000     0.00000     0.28685
     6.00000     0.00000     0.00000     0.28688     0.00000     0.00000     0.28688
     8.00000     0.00000     0.00000     0.28691     0.00000     0.00000     0.28691
    10.00000     0.00000     0.00000     0.28695     0.00000     0.00000     0.28695
    12.00000     0.00000     0.00000     0.28699     0.00000     0.00000     0.28699
    14.00000     0.00000     0.00000     0.28703     0.00000     0.00000     0.28703
    16.00000     0.00000     0.00000     0.28708     0.00000     0.00000     0.28708
    18.00000     0.00000     0.00000     0.28713     0.00000     0.00000     0.28713
