 # temperature (K), theta (degree), phi (degree), abs
     0.00000     0.00000     0.00000     2.12786
     2.00000     0.00000     0.00000     2.12770
     4.00000     0.00000     0.00000     2.12742
     6.00000     0.00000     0.00000     2.12705
     8.00000     0.00000     0.00000     2.12662
    10.00000     0.00000     0.00000     2.12613
    12.00000     0.00000     0.00000     2.12558
    14.00000     0.00000     0.00000     2.12499
    16.00000     0.00000     0.00000     2.12435
    18.00000     0.00000     0.00000     2.12367
