 # applied field (T), theta (degree), phi (degree), abs [muB/unitcell], abs [T]
       0.00000000       0.00000000       0.00000000      35.82462351       1.20579717
       0.10000000       0.28399707     360.00000000      35.82461740       1.20579696
       0.20000000       0.62464554     360.00000000      35.82459337       1.20579615
       0.30000000       0.90864350     360.00000000      35.82456011       1.20579503
       0.40000000       1.19264227     360.00000000      35.82451461       1.20579350
       0.50000000       1.53329388     360.00000000      35.82444256       1.20579108
       0.60000000       1.81729532     360.00000000      35.82436994       1.20578863
       0.70000000       2.10129838     360.00000000      35.82428512       1.20578578
       0.80000000       2.44195626     360.00000000      35.82416511       1.20578174
       0.90000000       2.72596378     360.00000000      35.82405322       1.20577797
       1.00000000       3.00997371     360.00000000      35.82392916       1.20577380
       1.10000000       3.35064100     360.00000000      35.82376131       1.20576815
       1.20000000       3.63465717     360.00000000      35.82361026       1.20576306
       1.30000000       3.91867656     360.00000000      35.82344709       1.20575757
       1.40000000       4.25935638     360.00000000      35.82323157       1.20575032
       1.50000000       4.54338378     360.00000000      35.82304152       1.20574392
       1.60000000       4.88407405     360.00000000      35.82279326       1.20573557
       1.70000000       5.16811067     360.00000000      35.82257643       1.20572827
       1.80000000       5.45215186     360.00000000      35.82234757       1.20572056
       1.90000000       5.79285991     360.00000000      35.82205204       1.20571062
       2.00000000       6.07691209     360.00000000      35.82179655       1.20570202
       2.10000000       6.36096964     360.00000000      35.82152912       1.20569302
       2.20000000       6.70169856     360.00000000      35.82118662       1.20568149
       2.30000000       6.98576885     360.00000000      35.82089274       1.20567160
       2.40000000       7.26984529     360.00000000      35.82058700       1.20566131
       2.50000000       7.61059816     360.00000000      35.82019787       1.20564821
       2.60000000       7.89468909     360.00000000      35.81986590       1.20563703
       2.70000000       8.17878695     360.00000000      35.81952217       1.20562547
       2.80000000       8.51956683     360.00000000      35.81908681       1.20561081
       2.90000000       8.80368091     360.00000000      35.81871709       1.20559837
       3.00000000       9.08780271     360.00000000      35.81833572       1.20558553
       3.10000000       9.42861264     360.00000000      35.81785456       1.20556934
       3.20000000       9.71275237     360.00000000      35.81744747       1.20555563
       3.30000000      10.05358473     360.00000000      35.81693502       1.20553839
       3.40000000      10.33774357     360.00000000      35.81650239       1.20552382
       3.50000000      10.62191143     360.00000000      35.81605833       1.20550888
       3.60000000      10.96277891     360.00000000      35.81550093       1.20549012
       3.70000000      11.24696757     360.00000000      35.81503166       1.20547432
       3.80000000      11.53116601     360.00000000      35.81455110       1.20545815
       3.90000000      11.87207157     360.00000000      35.81394931       1.20543789
       4.00000000      12.15629249     360.00000000      35.81344387       1.20542088
       4.10000000      12.49722599     360.00000000      35.81281182       1.20539961
       4.20000000      12.78147053     360.00000000      35.81228173       1.20538176
       4.30000000      13.06572612     360.00000000      35.81174063       1.20536355
       4.40000000      13.40670263     360.00000000      35.81106525       1.20534082
       4.50000000      13.69098349     360.00000000      35.81049989       1.20532179
       4.60000000      14.03199131     360.00000000      35.80979502       1.20529807
       4.70000000      14.31629855     360.00000000      35.80920566       1.20527823
       4.80000000      14.60061809     360.00000000      35.80860559       1.20525803
       4.90000000      14.94167378     360.00000000      35.80785856       1.20523289
       5.00000000      15.22602131     360.00000000      35.80723493       1.20521190
       5.10000000      15.56711160     360.00000000      35.80645925       1.20518579
       5.20000000      15.85148823     360.00000000      35.80581234       1.20516402
       5.30000000      16.13587837     360.00000000      35.80515507       1.20514189
       5.40000000      16.47702125     360.00000000      35.80433853       1.20511441
       5.50000000      16.76144206     360.00000000      35.80365844       1.20509152
       5.60000000      17.10262277     360.00000000      35.80281419       1.20506310
       5.70000000      17.38707531     360.00000000      35.80211162       1.20503946
       5.80000000      17.72829513     360.00000000      35.80124007       1.20501012
       5.90000000      18.01278046     360.00000000      35.80051535       1.20498573
       6.00000000      18.29728097     360.00000000      35.79978079       1.20496100
       6.10000000      18.63855984     360.00000000      35.79887040       1.20493036
       6.20000000      18.92309465     360.00000000      35.79811421       1.20490491
       6.30000000      19.26441574     360.00000000      35.79717756       1.20487338
       6.40000000      19.54898587     360.00000000      35.79640010       1.20484722
       6.50000000      19.89035041     360.00000000      35.79543764       1.20481482
       6.60000000      20.17495688     360.00000000      35.79463930       1.20478795
       6.70000000      20.51636609     360.00000000      35.79365149       1.20475470
       6.80000000      20.80100990     360.00000000      35.79283264       1.20472714
       6.90000000      21.14246498     360.00000000      35.79181995       1.20469305
       7.00000000      21.42714711     360.00000000      35.79098100       1.20466482
       7.10000000      21.71184688     360.00000000      35.79013316       1.20463628
       7.20000000      22.05337067     360.00000000      35.78908528       1.20460101
       7.30000000      22.33811016     360.00000000      35.78821792       1.20457182
       7.40000000      22.67968270     360.00000000      35.78714637       1.20453575
       7.50000000      22.96446286     360.00000000      35.78625993       1.20450591
       7.60000000      23.30608530     360.00000000      35.78516522       1.20446907
       7.70000000      23.59090705     360.00000000      35.78426013       1.20443860
       7.80000000      23.93258050     360.00000000      35.78314279       1.20440100
       7.90000000      24.21744477     360.00000000      35.78221948       1.20436992
       8.00000000      24.55917034     360.00000000      35.78108004       1.20433157
       8.10000000      24.90092493     360.00000000      35.77992866       1.20429281
       8.20000000      25.18585678     360.00000000      35.77897798       1.20426082
       8.30000000      25.52766516     360.00000000      35.77780535       1.20422135
       8.40000000      25.81264178     360.00000000      35.77683762       1.20418877
       8.50000000      26.15450500     360.00000000      35.77564430       1.20414861
       8.60000000      26.43952724     360.00000000      35.77465999       1.20411548
       8.70000000      26.78144632     360.00000000      35.77344657       1.20407464
       8.80000000      27.06651503     360.00000000      35.77244615       1.20404097
       8.90000000      27.40849099     360.00000000      35.77121320       1.20399947
       9.00000000      27.75049854     360.00000000      35.76996973       1.20395761
       9.10000000      28.03564079     360.00000000      35.76894529       1.20392313
       9.20000000      28.37770673     360.00000000      35.76768322       1.20388065
       9.30000000      28.66289749     360.00000000      35.76664394       1.20384567
       9.40000000      29.00502277     360.00000000      35.76536386       1.20380259
       9.50000000      29.34718099     360.00000000      35.76407412       1.20375918
       9.60000000      29.63244836     360.00000000      35.76301280       1.20372345
       9.70000000      29.97466735     360.00000000      35.76170602       1.20367947
       9.80000000      30.31692003     360.00000000      35.76039009       1.20363518
       9.90000000      30.60226580     360.00000000      35.75930799       1.20359876
      10.00000000      30.94458062     360.00000000      35.75797600       1.20355392
      10.10000000      31.28692988     360.00000000      35.75663541       1.20350880
      10.20000000      31.57235573     360.00000000      35.75553380       1.20347172
      10.30000000      31.91476844     360.00000000      35.75417816       1.20342609
      10.40000000      32.25721628     360.00000000      35.75281446       1.20338020
      10.50000000      32.54272385     360.00000000      35.75169463       1.20334250
      10.60000000      32.88523639     360.00000000      35.75031690       1.20329613
      10.70000000      33.22778473     360.00000000      35.74893169       1.20324951
      10.80000000      33.57036912     360.00000000      35.74753919       1.20320264
      10.90000000      33.85598978     360.00000000      35.74639676       1.20316419
      11.00000000      34.19864044     360.00000000      35.74499165       1.20311689
      11.10000000      34.54132777     360.00000000      35.74357982       1.20306937
      11.20000000      34.88405197     360.00000000      35.74216149       1.20302163
      11.30000000      35.22681325     360.00000000      35.74073687       1.20297368
      11.40000000      35.51258030     360.00000000      35.73956945       1.20293439
      11.50000000      35.85540970     360.00000000      35.73813404       1.20288608
      11.60000000      36.19827673     360.00000000      35.73669293       1.20283757
      11.70000000      36.54118160     360.00000000      35.73524632       1.20278888
      11.80000000      36.88412448     360.00000000      35.73379445       1.20274001
      11.90000000      37.22710555     360.00000000      35.73233750       1.20269097
      12.00000000      37.57012499     360.00000000      35.73087572       1.20264177
      12.10000000      37.85610543     360.00000000      35.72967984       1.20260152
      12.20000000      38.19919524     360.00000000      35.72820993       1.20255205
      12.30000000      38.54232389     360.00000000      35.72673579       1.20250243
      12.40000000      38.88549153     360.00000000      35.72525763       1.20245268
      12.50000000      39.22869830     360.00000000      35.72377567       1.20240280
      12.60000000      39.57194437     360.00000000      35.72229015       1.20235280
      12.70000000      39.91522986     360.00000000      35.72080127       1.20230268
      12.80000000      40.25855492     360.00000000      35.71930925       1.20225247
      12.90000000      40.60191967     360.00000000      35.71781434       1.20220215
      13.00000000      40.94532424     360.00000000      35.71631674       1.20215174
      13.10000000      41.28876874     360.00000000      35.71481668       1.20210125
      13.20000000      41.63225329     360.00000000      35.71331439       1.20205069
      13.30000000      42.03293984     360.00000000      35.71153096       1.20199066
      13.40000000      42.37651200     360.00000000      35.71002442       1.20193995
      13.50000000      42.72012453     360.00000000      35.70851636       1.20188919
      13.60000000      43.06377753     360.00000000      35.70700702       1.20183839
      13.70000000      43.40747109     360.00000000      35.70549663       1.20178756
      13.80000000      43.75120527     360.00000000      35.70398541       1.20173669
      13.90000000      44.15218665     360.00000000      35.70219219       1.20167633
      14.00000000      44.49600960     360.00000000      35.70067980       1.20162543
      14.10000000      44.83987340     360.00000000      35.69916731       1.20157452
      14.20000000      45.18377810     360.00000000      35.69765496       1.20152362
      14.30000000      45.58496077     360.00000000      35.69586088       1.20146323
      14.40000000      45.92895475     360.00000000      35.69434946       1.20141236
      14.50000000      46.33024278     360.00000000      35.69255670       1.20135202
      14.60000000      46.67432622     360.00000000      35.69104731       1.20130122
      14.70000000      47.01845076     360.00000000      35.68953930       1.20125046
      14.80000000      47.41989283     360.00000000      35.68775091       1.20119026
      14.90000000      47.76410698     360.00000000      35.68624655       1.20113963
      15.00000000      48.16565475     360.00000000      35.68446267       1.20107959
      15.10000000      48.50995854     360.00000000      35.68296307       1.20102911
      15.20000000      48.91161202     360.00000000      35.68118501       1.20096927
      15.30000000      49.31332268     360.00000000      35.67941054       1.20090954
      15.40000000      49.65776452     360.00000000      35.67792036       1.20085938
      15.50000000      50.05958076     360.00000000      35.67615373       1.20079992
      15.60000000      50.46145408     360.00000000      35.67439176       1.20074062
      15.70000000      50.80603362     360.00000000      35.67291365       1.20069087
      15.80000000      51.20801219     360.00000000      35.67116154       1.20063189
      15.90000000      51.61004761     360.00000000      35.66941519       1.20057311
      16.00000000      52.01213978     360.00000000      35.66767499       1.20051454
      16.10000000      52.41428860     360.00000000      35.66594131       1.20045619
      16.20000000      52.81649393     360.00000000      35.66421454       1.20039807
      16.30000000      53.21875563     360.00000000      35.66249506       1.20034019
      16.40000000      53.62107356     360.00000000      35.66078325       1.20028258
      16.50000000      54.02344755     360.00000000      35.65907950       1.20022523
      16.60000000      54.42587742     360.00000000      35.65738417       1.20016817
      16.70000000      54.82836297     360.00000000      35.65569766       1.20011141
      16.80000000      55.23090400     360.00000000      35.65402034       1.20005495
      16.90000000      55.69095433     360.00000000      35.65208510       1.19998981
      17.00000000      56.09361411     360.00000000      35.65042861       1.19993406
      17.10000000      56.55380084     360.00000000      35.64851785       1.19986974
      17.20000000      56.95657822     360.00000000      35.64688393       1.19981475
      17.30000000      57.41689999     360.00000000      35.64499964       1.19975133
      17.40000000      57.81979371     360.00000000      35.64339002       1.19969715
      17.50000000      58.28024903     360.00000000      35.64153418       1.19963469
      17.60000000      58.74077523     360.00000000      35.63969424       1.19957276
      17.70000000      59.20137182     360.00000000      35.63787077       1.19951138
      17.80000000      59.66203829     360.00000000      35.63606432       1.19945058
      17.90000000      60.12277409     360.00000000      35.63427544       1.19939037
      18.00000000      60.58357865     360.00000000      35.63250469       1.19933077
      18.10000000      61.04445138     360.00000000      35.63075262       1.19927180
      18.20000000      61.50539165     360.00000000      35.62901976       1.19921347
      18.30000000      62.02398211     360.00000000      35.62706576       1.19914770
      18.40000000      62.48506443     360.00000000      35.62537542       1.19909081
      18.50000000      63.00381440     360.00000000      35.62347034       1.19902669
      18.60000000      63.52264774     360.00000000      35.62159221       1.19896347
      18.70000000      64.04156338     360.00000000      35.61974177       1.19890119
      18.80000000      64.56056022     360.00000000      35.61791978       1.19883986
      18.90000000      65.07963712     360.00000000      35.61612697       1.19877952
      19.00000000      65.59879292     360.00000000      35.61436407       1.19872019
      19.10000000      66.17568730     360.00000000      35.61241527       1.19865459
      19.20000000      66.69500629     360.00000000      35.61071780       1.19859746
      19.30000000      67.27208036     360.00000000      35.60884323       1.19853436
      19.40000000      67.84924675     360.00000000      35.60700908       1.19847263
      19.50000000      68.48420429     360.00000000      35.60501551       1.19840553
      19.60000000      69.06155906     360.00000000      35.60326920       1.19834675
      19.70000000      69.69672057     360.00000000      35.60137430       1.19828297
      19.80000000      70.33198533     360.00000000      35.59953279       1.19822099
      19.90000000      71.02509171     360.00000000      35.59756413       1.19815473
      20.00000000      71.66056386     360.00000000      35.59583794       1.19809663
      20.10000000      72.41165266     360.00000000      35.59382700       1.19802894
      20.20000000      73.10509930     360.00000000      35.59206143       1.19796952
      20.30000000      73.85643285     360.00000000      35.59020781       1.19790713
      20.40000000      74.66567850     360.00000000      35.58828688       1.19784247
      20.50000000      75.53286102     360.00000000      35.58632163       1.19777632
      20.60000000      76.40019007     360.00000000      35.58447302       1.19771410
      20.70000000      77.32548038     360.00000000      35.58261566       1.19765159
      20.80000000      78.36658637     360.00000000      35.58065960       1.19758575
      20.90000000      79.46571088     360.00000000      35.57877375       1.19752227
      21.00000000      80.68072151     360.00000000      35.57689757       1.19745913
      21.10000000      82.06952000     360.00000000      35.57502452       1.19739608
      21.20000000      83.80578911     360.00000000      35.57308906       1.19733094
      21.30000000      86.23696190     360.00000000      35.57116987       1.19726634
      21.40000000      90.00000000     360.00000000      35.57014832       1.19723196
      21.50000000      90.00000000     360.00000000      35.57040524       1.19724060
      21.60000000      90.00000000     360.00000000      35.57066213       1.19724925
      21.70000000      90.00000000     360.00000000      35.57091900       1.19725790
      21.80000000      90.00000000     360.00000000      35.57117585       1.19726654
      21.90000000      90.00000000     360.00000000      35.57143268       1.19727519
      22.00000000      90.00000000     360.00000000      35.57168948       1.19728383
      22.10000000      90.00000000     360.00000000      35.57194626       1.19729247
      22.20000000      90.00000000     360.00000000      35.57220303       1.19730111
      22.30000000      90.00000000     360.00000000      35.57245977       1.19730976
      22.40000000      90.00000000     360.00000000      35.57271649       1.19731840
      22.50000000      90.00000000     360.00000000      35.57297318       1.19732704
      22.60000000      90.00000000     360.00000000      35.57322986       1.19733568
      22.70000000      90.00000000     360.00000000      35.57348652       1.19734432
      22.80000000      90.00000000     360.00000000      35.57374315       1.19735295
      22.90000000      90.00000000     360.00000000      35.57399976       1.19736159
      23.00000000      90.00000000     360.00000000      35.57425635       1.19737023
      23.10000000      90.00000000     360.00000000      35.57451292       1.19737886
      23.20000000      90.00000000     360.00000000      35.57476947       1.19738750
      23.30000000      90.00000000     360.00000000      35.57502599       1.19739613
      23.40000000      90.00000000     360.00000000      35.57528250       1.19740476
      23.50000000      90.00000000     360.00000000      35.57553898       1.19741340
      23.60000000      90.00000000     360.00000000      35.57579544       1.19742203
      23.70000000      90.00000000     360.00000000      35.57605188       1.19743066
      23.80000000      90.00000000     360.00000000      35.57630830       1.19743929
      23.90000000      90.00000000     360.00000000      35.57656470       1.19744792
      24.00000000      90.00000000     360.00000000      35.57682107       1.19745655
      24.10000000      90.00000000     360.00000000      35.57707743       1.19746518
      24.20000000      90.00000000     360.00000000      35.57733376       1.19747381
      24.30000000      90.00000000     360.00000000      35.57759007       1.19748243
      24.40000000      90.00000000     360.00000000      35.57784636       1.19749106
      24.50000000      90.00000000     360.00000000      35.57810263       1.19749969
      24.60000000      90.00000000     360.00000000      35.57835887       1.19750831
      24.70000000      90.00000000     360.00000000      35.57861510       1.19751693
      24.80000000      90.00000000     360.00000000      35.57887130       1.19752556
      24.90000000      90.00000000     360.00000000      35.57912749       1.19753418
      25.00000000      90.00000000     360.00000000      35.57938365       1.19754280
      25.10000000      90.00000000     360.00000000      35.57963979       1.19755142
      25.20000000      90.00000000     360.00000000      35.57989591       1.19756004
      25.30000000      90.00000000     360.00000000      35.58015201       1.19756866
      25.40000000      90.00000000     360.00000000      35.58040808       1.19757728
      25.50000000      90.00000000     360.00000000      35.58066414       1.19758590
      25.60000000      90.00000000     360.00000000      35.58092017       1.19759452
      25.70000000      90.00000000     360.00000000      35.58117618       1.19760314
      25.80000000      90.00000000     360.00000000      35.58143218       1.19761175
      25.90000000      90.00000000     360.00000000      35.58168815       1.19762037
      26.00000000      90.00000000     360.00000000      35.58194409       1.19762898
      26.10000000      90.00000000     360.00000000      35.58220002       1.19763760
      26.20000000      90.00000000     360.00000000      35.58245593       1.19764621
      26.30000000      90.00000000     360.00000000      35.58271181       1.19765482
      26.40000000      90.00000000     360.00000000      35.58296768       1.19766344
      26.50000000      90.00000000     360.00000000      35.58322352       1.19767205
      26.60000000      90.00000000     360.00000000      35.58347934       1.19768066
      26.70000000      90.00000000     360.00000000      35.58373514       1.19768927
      26.80000000      90.00000000     360.00000000      35.58399092       1.19769788
      26.90000000      90.00000000     360.00000000      35.58424668       1.19770648
      27.00000000      90.00000000     360.00000000      35.58450241       1.19771509
      27.10000000      90.00000000     360.00000000      35.58475813       1.19772370
      27.20000000      90.00000000     360.00000000      35.58501382       1.19773230
      27.30000000      90.00000000     360.00000000      35.58526949       1.19774091
      27.40000000      90.00000000     360.00000000      35.58552515       1.19774952
      27.50000000      90.00000000     360.00000000      35.58578078       1.19775812
      27.60000000      90.00000000     360.00000000      35.58603639       1.19776672
      27.70000000      90.00000000     360.00000000      35.58629197       1.19777533
      27.80000000      90.00000000     360.00000000      35.58654754       1.19778393
      27.90000000      90.00000000     360.00000000      35.58680309       1.19779253
      28.00000000      90.00000000     360.00000000      35.58705861       1.19780113
      28.10000000      90.00000000     360.00000000      35.58731412       1.19780973
      28.20000000      90.00000000     360.00000000      35.58756960       1.19781833
      28.30000000      90.00000000     360.00000000      35.58782506       1.19782693
      28.40000000      90.00000000     360.00000000      35.58808050       1.19783552
      28.50000000      90.00000000     360.00000000      35.58833592       1.19784412
      28.60000000      90.00000000     360.00000000      35.58859132       1.19785272
      28.70000000      90.00000000     360.00000000      35.58884670       1.19786131
      28.80000000      90.00000000     360.00000000      35.58910205       1.19786991
      28.90000000      90.00000000     360.00000000      35.58935739       1.19787850
      29.00000000      90.00000000     360.00000000      35.58961270       1.19788710
      29.10000000      90.00000000     360.00000000      35.58986800       1.19789569
      29.20000000      90.00000000     360.00000000      35.59012327       1.19790428
      29.30000000      90.00000000     360.00000000      35.59037852       1.19791287
      29.40000000      90.00000000     360.00000000      35.59063375       1.19792146
      29.50000000      90.00000000     360.00000000      35.59088896       1.19793005
      29.60000000      90.00000000     360.00000000      35.59114415       1.19793864
      29.70000000      90.00000000     360.00000000      35.59139931       1.19794723
      29.80000000      90.00000000     360.00000000      35.59165446       1.19795582
      29.90000000      90.00000000     360.00000000      35.59190958       1.19796440
      30.00000000      90.00000000     360.00000000      35.59216469       1.19797299
      30.10000000      90.00000000     360.00000000      35.59241977       1.19798158
      30.20000000      90.00000000     360.00000000      35.59267483       1.19799016
      30.30000000      90.00000000     360.00000000      35.59292988       1.19799875
      30.40000000      90.00000000     360.00000000      35.59318490       1.19800733
      30.50000000      90.00000000     360.00000000      35.59343990       1.19801591
      30.60000000      90.00000000     360.00000000      35.59369487       1.19802449
      30.70000000      90.00000000     360.00000000      35.59394983       1.19803308
      30.80000000      90.00000000     360.00000000      35.59420477       1.19804166
      30.90000000      90.00000000     360.00000000      35.59445968       1.19805024
      31.00000000      90.00000000     360.00000000      35.59471458       1.19805882
      31.10000000      90.00000000     360.00000000      35.59496945       1.19806739
      31.20000000      90.00000000     360.00000000      35.59522431       1.19807597
      31.30000000      90.00000000     360.00000000      35.59547914       1.19808455
      31.40000000      90.00000000     360.00000000      35.59573395       1.19809313
      31.50000000      90.00000000     360.00000000      35.59598874       1.19810170
      31.60000000      90.00000000     360.00000000      35.59624351       1.19811028
      31.70000000      90.00000000     360.00000000      35.59649826       1.19811885
      31.80000000      90.00000000     360.00000000      35.59675299       1.19812743
      31.90000000      90.00000000     360.00000000      35.59700770       1.19813600
      32.00000000      90.00000000     360.00000000      35.59726238       1.19814457
      32.10000000      90.00000000     360.00000000      35.59751705       1.19815314
      32.20000000      90.00000000     360.00000000      35.59777169       1.19816171
      32.30000000      90.00000000     360.00000000      35.59802632       1.19817028
      32.40000000      90.00000000     360.00000000      35.59828092       1.19817885
      32.50000000      90.00000000     360.00000000      35.59853550       1.19818742
      32.60000000      90.00000000     360.00000000      35.59879007       1.19819599
      32.70000000      90.00000000     360.00000000      35.59904461       1.19820456
      32.80000000      90.00000000     360.00000000      35.59929913       1.19821312
      32.90000000      90.00000000     360.00000000      35.59955363       1.19822169
      33.00000000      90.00000000     360.00000000      35.59980811       1.19823026
      33.10000000      90.00000000     360.00000000      35.60006256       1.19823882
      33.20000000      90.00000000     360.00000000      35.60031700       1.19824738
      33.30000000      90.00000000     360.00000000      35.60057142       1.19825595
      33.40000000      90.00000000     360.00000000      35.60082582       1.19826451
      33.50000000      90.00000000     360.00000000      35.60108019       1.19827307
      33.60000000      90.00000000     360.00000000      35.60133455       1.19828163
      33.70000000      90.00000000     360.00000000      35.60158888       1.19829019
      33.80000000      90.00000000     360.00000000      35.60184319       1.19829875
      33.90000000      90.00000000     360.00000000      35.60209749       1.19830731
      34.00000000      90.00000000     360.00000000      35.60235176       1.19831587
      34.10000000      90.00000000     360.00000000      35.60260601       1.19832443
      34.20000000      90.00000000     360.00000000      35.60286024       1.19833299
      34.30000000      90.00000000     360.00000000      35.60311445       1.19834154
      34.40000000      90.00000000     360.00000000      35.60336864       1.19835010
      34.50000000      90.00000000     360.00000000      35.60362281       1.19835865
      34.60000000      90.00000000     360.00000000      35.60387696       1.19836721
      34.70000000      90.00000000     360.00000000      35.60413109       1.19837576
      34.80000000      90.00000000     360.00000000      35.60438519       1.19838431
      34.90000000      90.00000000     360.00000000      35.60463928       1.19839287
      35.00000000      90.00000000     360.00000000      35.60489335       1.19840142
      35.10000000      90.00000000     360.00000000      35.60514739       1.19840997
      35.20000000      90.00000000     360.00000000      35.60540142       1.19841852
      35.30000000      90.00000000     360.00000000      35.60565542       1.19842707
      35.40000000      90.00000000     360.00000000      35.60590941       1.19843562
      35.50000000      90.00000000     360.00000000      35.60616337       1.19844416
      35.60000000      90.00000000     360.00000000      35.60641731       1.19845271
      35.70000000      90.00000000     360.00000000      35.60667123       1.19846126
      35.80000000      90.00000000     360.00000000      35.60692514       1.19846980
      35.90000000      90.00000000     360.00000000      35.60717902       1.19847835
      36.00000000      90.00000000     360.00000000      35.60743288       1.19848689
      36.10000000      90.00000000     360.00000000      35.60768672       1.19849544
      36.20000000      90.00000000     360.00000000      35.60794054       1.19850398
      36.30000000      90.00000000     360.00000000      35.60819434       1.19851252
      36.40000000      90.00000000     360.00000000      35.60844812       1.19852106
      36.50000000      90.00000000     360.00000000      35.60870187       1.19852961
      36.60000000      90.00000000     360.00000000      35.60895561       1.19853815
      36.70000000      90.00000000     360.00000000      35.60920933       1.19854669
      36.80000000      90.00000000     360.00000000      35.60946303       1.19855522
      36.90000000      90.00000000     360.00000000      35.60971670       1.19856376
      37.00000000      90.00000000     360.00000000      35.60997036       1.19857230
      37.10000000      90.00000000     360.00000000      35.61022400       1.19858084
      37.20000000      90.00000000     360.00000000      35.61047761       1.19858937
      37.30000000      90.00000000     360.00000000      35.61073121       1.19859791
      37.40000000      90.00000000     360.00000000      35.61098478       1.19860644
      37.50000000      90.00000000     360.00000000      35.61123834       1.19861498
      37.60000000      90.00000000     360.00000000      35.61149187       1.19862351
      37.70000000      90.00000000     360.00000000      35.61174538       1.19863204
      37.80000000      90.00000000     360.00000000      35.61199888       1.19864058
      37.90000000      90.00000000     360.00000000      35.61225235       1.19864911
      38.00000000      90.00000000     360.00000000      35.61250580       1.19865764
      38.10000000      90.00000000     360.00000000      35.61275923       1.19866617
      38.20000000      90.00000000     360.00000000      35.61301265       1.19867470
      38.30000000      90.00000000     360.00000000      35.61326604       1.19868323
      38.40000000      90.00000000     360.00000000      35.61351941       1.19869176
      38.50000000      90.00000000     360.00000000      35.61377276       1.19870028
      38.60000000      90.00000000     360.00000000      35.61402609       1.19870881
      38.70000000      90.00000000     360.00000000      35.61427940       1.19871734
      38.80000000      90.00000000     360.00000000      35.61453269       1.19872586
      38.90000000      90.00000000     360.00000000      35.61478596       1.19873439
      39.00000000      90.00000000     360.00000000      35.61503921       1.19874291
      39.10000000      90.00000000     360.00000000      35.61529244       1.19875143
      39.20000000      90.00000000     360.00000000      35.61554565       1.19875996
      39.30000000      90.00000000     360.00000000      35.61579884       1.19876848
      39.40000000      90.00000000     360.00000000      35.61605201       1.19877700
      39.50000000      90.00000000     360.00000000      35.61630516       1.19878552
      39.60000000      90.00000000     360.00000000      35.61655828       1.19879404
      39.70000000      90.00000000     360.00000000      35.61681139       1.19880256
      39.80000000      90.00000000     360.00000000      35.61706448       1.19881108
      39.90000000      90.00000000     360.00000000      35.61731755       1.19881959
      40.00000000      90.00000000     360.00000000      35.61757059       1.19882811
