 # applied field (T), theta (degree), phi (degree), abs [muB/unitcell], abs [T]
       0.00000000      90.00000000      45.42820174      51.45831839       1.79192088
       0.10000000      89.77469434      45.42820174      51.45831520       1.79192076
       0.20000000      89.49320844      44.57179825      51.45830165       1.79192029
       0.30000000      89.26790247      44.57179824      51.45828385       1.79191967
       0.40000000      88.98641592      45.42820177      51.45825143       1.79191854
       0.50000000      88.76110923      44.57179821      51.45821902       1.79191742
       0.60000000      88.47962150      44.57179818      51.45816775       1.79191563
       0.70000000      88.25431366      45.42820185      51.45812076       1.79191399
       0.80000000      88.02900519      45.42820188      51.45806741       1.79191214
       0.90000000      87.74751482      44.57179808      51.45798911       1.79190941
       1.00000000      87.52220459      44.57179804      51.45792122       1.79190704
       1.10000000      87.24071174      44.57179798      51.45782414       1.79190366
       1.20000000      87.01539934      45.42820206      51.45774173       1.79190079
       1.30000000      86.79008584      45.42820212      51.45765300       1.79189770
       1.40000000      86.50858848      45.42820218      51.45752905       1.79189339
       1.50000000      86.28327220      45.42820224      51.45742587       1.79188980
       1.60000000      86.00177108      45.42820232      51.45728328       1.79188483
       1.70000000      85.77645159      44.57179761      51.45716570       1.79188074
       1.80000000      85.55113056      45.42820246      51.45704186       1.79187642
       1.90000000      85.26962307      45.42820256      51.45687263       1.79187053
       2.00000000      85.04429823      44.57179736      51.45673448       1.79186572
       2.10000000      84.76278567      44.57179726      51.45654680       1.79185918
       2.20000000      84.53745660      45.42820283      51.45639441       1.79185388
       2.30000000      84.31212554      44.57179707      51.45623583       1.79184836
       2.40000000      84.03060475      44.57179695      51.45602183       1.79184090
       2.50000000      83.80526885      44.57179685      51.45584913       1.79183489
       2.60000000      83.57993068      45.42820325      51.45567029       1.79182866
       2.70000000      83.29840089      45.00000000      51.45542971       1.79182028
       2.80000000      83.07305730      45.00000000      51.45523688       1.79181357
       2.90000000      82.84771118      45.00000000      51.45503798       1.79180664
       3.00000000      82.56617065      45.00000000      51.45477202       1.79179738
       3.10000000      82.34081850      45.00000000      51.45455928       1.79178997
       3.20000000      82.05927010      45.00000000      51.45427547       1.79178009
       3.30000000      81.83391150      45.00000000      51.45404899       1.79177220
       3.40000000      81.60854991      45.00000000      51.45381656       1.79176411
       3.50000000      81.38318526      45.00000000      51.45357820       1.79175581
       3.60000000      81.10162061      45.00000000      51.45326139       1.79174478
       3.70000000      80.87624873      45.00000000      51.45300952       1.79173601
       3.80000000      80.65087352      45.00000000      51.45275181       1.79172703
       3.90000000      80.36929519      45.00000000      51.45241006       1.79171513
       4.00000000      80.14391215      45.00000000      51.45213902       1.79170569
       4.10000000      79.91852552      45.00000000      51.45186223       1.79169605
       4.20000000      79.63693191      44.56347961      51.45149642       1.79168332
       4.30000000      79.41153684      44.56347943      51.45120652       1.79167322
       4.40000000      79.18613793      44.56347924      51.45091095       1.79166293
       4.50000000      78.96073507      44.56347905      51.45060976       1.79165244
       4.60000000      78.67912104      45.43652119      51.45021198       1.79163859
       4.70000000      78.45370899      44.56347862      51.44989796       1.79162765
       4.80000000      78.22829274      44.56347841      51.44957841       1.79161653
       4.90000000      78.00287222      44.56347821      51.44925337       1.79160521
       5.00000000      77.77744735      45.43652201      51.44892286       1.79159370
       5.10000000      77.49580495      44.56347773      51.44848731       1.79157853
       5.20000000      77.27036993      44.56347751      51.44814438       1.79156659
       5.30000000      77.04493092      45.00000000      51.44779556       1.79155444
       5.40000000      76.81948660      45.00000000      51.44744197       1.79154213
       5.50000000      76.59403750      45.00000000      51.44708309       1.79152963
       5.60000000      76.31236397      45.00000000      51.44661098       1.79151319
       5.70000000      76.08690379      45.00000000      51.44624012       1.79150028
       5.80000000      75.86143857      45.00000000      51.44586410       1.79148718
       5.90000000      75.63596824      45.00000000      51.44548296       1.79147391
       6.00000000      75.41049272      45.00000000      51.44509676       1.79146046
       6.10000000      75.18501193      45.00000000      51.44470552       1.79144684
       6.20000000      74.95952579      45.00000000      51.44430929       1.79143304
       6.30000000      74.67780399      45.44516939      51.44378959       1.79141494
       6.40000000      74.45230547      44.55483033      51.44338203       1.79140075
       6.50000000      74.22680134      45.44516995      51.44296962       1.79138639
       6.60000000      74.00129152      44.55482976      51.44255239       1.79137186
       6.70000000      73.77577595      44.55482947      51.44213040       1.79135717
       6.80000000      73.55025455      44.55482918      51.44170369       1.79134231
       6.90000000      73.32472722      45.44517113      51.44127231       1.79132728
       7.00000000      73.09919391      44.55482857      51.44083630       1.79131210
       7.10000000      72.87365536      45.00000000      51.44039511       1.79129674
       7.20000000      72.64810983      45.00000000      51.43994997       1.79128124
       7.30000000      72.42255808      45.00000000      51.43950035       1.79126558
       7.40000000      72.19700003      45.00000000      51.43904629       1.79124977
       7.50000000      71.97143560      45.00000000      51.43858784       1.79123380
       7.60000000      71.74586471      45.00000000      51.43812504       1.79121769
       7.70000000      71.52028728      45.00000000      51.43765796       1.79120142
       7.80000000      71.35095658      45.00000000      51.43732666       1.79118989
       7.90000000      71.06911158      44.54583219      51.43671175       1.79116847
       8.00000000      70.84351409      45.45416817      51.43623210       1.79115177
       8.10000000      70.61790975      44.54583147      51.43574837       1.79113493
       8.20000000      70.39229850      45.45416890      51.43526060       1.79111794
       8.30000000      70.16668025      45.45416928      51.43476885       1.79110082
       8.40000000      69.94105494      45.45416965      51.43427318       1.79108355
       8.50000000      69.65915698      45.00000000      51.43362382       1.79106094
       8.60000000      69.54605172      45.00000000      51.43341963       1.79105383
       8.70000000      69.32040666      45.00000000      51.43291369       1.79103621
       8.80000000      69.09475425      45.00000000      51.43240403       1.79101847
       8.90000000      68.86909441      45.00000000      51.43189071       1.79100059
       9.00000000      68.64342706      45.00000000      51.43137379       1.79098259
       9.10000000      68.47402928      45.00000000      51.43100875       1.79096988
       9.20000000      68.24834870      45.00000000      51.43048590       1.79095167
       9.30000000      68.02265931      45.46353747      51.42996030       1.79093337
       9.40000000      67.79696322      45.46353791      51.42943063       1.79091492
       9.50000000      67.57125928      44.53646165      51.42889763       1.79089636
       9.60000000      67.40183422      44.53646131      51.42852188       1.79088328
       9.70000000      67.17611643      44.53646086      51.42798344       1.79086453
       9.80000000      66.95039056      44.53646041      51.42744185       1.79084567
       9.90000000      66.72465772      45.00000000      51.42689646       1.79082668
      10.00000000      66.55521028      45.00000000      51.42651300       1.79081332
      10.10000000      66.32946194      45.00000000      51.42596328       1.79079418
      10.20000000      66.10370526      45.00000000      51.42541063       1.79077494
      10.30000000      65.93424093      45.00000000      51.42502199       1.79076140
      10.40000000      65.70846956      45.00000000      51.42446462       1.79074199
      10.50000000      65.53899428      45.00000000      51.42407292       1.79072835
      10.60000000      65.31320673      44.52669814      51.42351176       1.79070881
      10.70000000      65.08741176      45.47330237      51.42294723       1.79068915
      10.80000000      64.86160803      44.52669712      51.42238012       1.79066941
      10.90000000      64.69210867      44.52669672      51.42198218       1.79065555
      11.00000000      64.46628954      45.47330380      51.42141098       1.79063566
      11.10000000      64.24046275      45.00000000      51.42083663       1.79061566
      11.20000000      64.07094527      45.00000000      51.42043460       1.79060166
      11.30000000      63.84510144      45.00000000      51.41985723       1.79058155
      11.40000000      63.67557223      45.00000000      51.41945286       1.79056747
      11.50000000      63.44971243      45.00000000      51.41887193       1.79054724
      11.60000000      63.28017134      45.00000000      51.41846537       1.79053308
      11.70000000      63.11062515      45.00000000      51.41805804       1.79051890
      11.80000000      62.88474080      45.48348632      51.41747331       1.79049854
      11.90000000      62.65884837      45.48348690      51.41688588       1.79047808
      12.00000000      62.48928302      44.51651265      51.41647544       1.79046379
      12.10000000      62.26337394      44.51651206      51.41588509       1.79044323
      12.20000000      62.09379621      44.51651160      51.41547294       1.79042888
      12.30000000      61.86787169      45.00000000      51.41487909       1.79040820
      12.40000000      61.69828142      45.00000000      51.41446540       1.79039379
      12.50000000      61.52868576      45.00000000      51.41405120       1.79037937
      12.60000000      61.30273541      45.00000000      51.41345481       1.79035860
      12.70000000      61.13312698      45.00000000      51.41303931       1.79034413
      12.80000000      60.90715922      45.00000000      51.41244076       1.79032329
      12.90000000      60.73753633      44.50588166      51.41202499       1.79030881
      13.00000000      60.56790941      44.50588116      51.41160802       1.79029429
      13.10000000      60.34191645      45.49411950      51.41100692       1.79027336
      13.20000000      60.17227635      45.49412001      51.41058907       1.79025881
      13.30000000      60.00263061      44.50587948      51.41017098       1.79024425
      13.40000000      59.72024567      45.00000000      51.40938189       1.79021677
      13.50000000      59.60695441      45.00000000      51.40914823       1.79020863
      13.60000000      59.43728951      45.00000000      51.40872938       1.79019405
      13.70000000      59.26761883      45.00000000      51.40831043       1.79017946
      13.80000000      59.04156628      45.00000000      51.40770537       1.79015839
      13.90000000      58.87188189      45.00000000      51.40728612       1.79014379
      14.00000000      58.75857185      45.00000000      51.40705338       1.79013569
      14.10000000      58.53249380      44.49477099      51.40644861       1.79011463
      14.20000000      58.30640651      45.50522974      51.40584249       1.79009352
      14.30000000      58.13669631      45.50523031      51.40542334       1.79007892
      14.40000000      57.96698011      45.50523087      51.40500434       1.79006433
      14.50000000      57.79725786      44.49476855      51.40458554       1.79004975
      14.60000000      57.62753122      45.00000000      51.40416606       1.79003514
      14.70000000      57.40140017      45.00000000      51.40355987       1.79001403
      14.80000000      57.23165746      45.00000000      51.40314175       1.78999947
      14.90000000      57.06190859      45.00000000      51.40272397       1.78998492
      15.00000000      56.89215351      45.00000000      51.40230657       1.78997039
      15.10000000      56.77879763      45.00000000      51.40207781       1.78996242
      15.20000000      56.55262289      44.48314964      51.40147399       1.78994140
      15.30000000      56.38284903      45.51685098      51.40105793       1.78992691
      15.40000000      56.21306886      45.51685160      51.40064238       1.78991244
      15.50000000      56.04328234      45.51685223      51.40022739       1.78989799
      15.60000000      55.87348943      45.51685286      51.39981298       1.78988356
      15.70000000      55.70369189      45.00000000      51.39939824       1.78986911
      15.80000000      55.53388614      45.00000000      51.39898512       1.78985473
      15.90000000      55.36407391      45.00000000      51.39857269       1.78984037
      16.00000000      55.19425518      45.00000000      51.39816099       1.78982603
      16.10000000      55.02442991      45.00000000      51.39775006       1.78981172
      16.20000000      54.85459808      45.00000000      51.39733994       1.78979744
      16.30000000      54.68475777      44.47098125      51.39693165       1.78978322
      16.40000000      54.51491272      45.52901943      51.39652325       1.78976900
      16.50000000      54.34506100      44.47097989      51.39611576       1.78975481
      16.60000000      54.17520259      45.52902080      51.39570921       1.78974065
      16.70000000      54.00533746      44.47097851      51.39530366       1.78972653
      16.80000000      53.83546746      45.00000000      51.39489814       1.78971241
      16.90000000      53.66558879      45.00000000      51.39449468       1.78969836
      17.00000000      53.49570331      45.00000000      51.39409232       1.78968435
      17.10000000      53.32581097      45.00000000      51.39369110       1.78967037
      17.20000000      53.15591176      45.00000000      51.39329107       1.78965644
      17.30000000      53.04246241      45.00000000      51.39307887       1.78964906
      17.40000000      52.87254981      45.54177386      51.39268214       1.78963524
      17.50000000      52.70263223      44.45822540      51.39228563       1.78962143
      17.60000000      52.53270766      44.45822465      51.39189045       1.78960767
      17.70000000      52.36277605      44.45822390      51.39149663       1.78959396
      17.80000000      52.13637016      45.00000000      51.39091779       1.78957380
      17.90000000      52.07936445      45.00000000      51.39089727       1.78957309
      18.00000000      51.90941408      45.00000000      51.39050747       1.78955951
      18.10000000      51.73945657      45.00000000      51.39011917       1.78954599
      18.20000000      51.56949186      45.00000000      51.38973241       1.78953252
      18.30000000      51.45600006      45.00000000      51.38953110       1.78952551
      18.40000000      51.28602346      45.00000000      51.38914720       1.78951214
      18.50000000      51.11603749      45.55515913      51.38876605       1.78949887
      18.60000000      50.94604630      45.55515994      51.38838550       1.78948562
      18.70000000      50.83253734      44.44483949      51.38818911       1.78947878
      18.80000000      50.66253406      44.44483868      51.38781166       1.78946564
      18.90000000      50.49252338      44.44483785      51.38743602       1.78945256
      19.00000000      50.37900388      45.00000000      51.38724238       1.78944581
      19.10000000      50.20898095      45.00000000      51.38687003       1.78943285
      19.20000000      50.03895053      45.00000000      51.38649959       1.78941995
      19.30000000      49.92541613      45.00000000      51.38631106       1.78941338
      19.40000000      49.75537331      45.00000000      51.38594410       1.78940060
      19.50000000      49.64183087      45.00000000      51.38575823       1.78939413
      19.60000000      49.47177334      45.56922212      51.38539600       1.78938152
      19.70000000      49.30171037      45.56922300      51.38503473       1.78936894
      19.80000000      49.18815488      45.56922361      51.38485321       1.78936261
      19.90000000      49.01807926      44.43077551      51.38449572       1.78935017
      20.00000000      48.84799589      44.43077462      51.38414044       1.78933779
      20.10000000      48.73442939      45.00000000      51.38396233       1.78933159
      20.20000000      48.56433321      45.00000000      51.38361103       1.78931936
      20.30000000      48.45075619      45.00000000      51.38343704       1.78931330
      20.40000000      48.28064709      45.00000000      51.38308984       1.78930121
      20.50000000      48.16706170      45.00000000      51.38291892       1.78929526
      20.60000000      47.99693959      45.00000000      51.38257593       1.78928331
      20.70000000      47.88334344      44.41598416      51.38240934       1.78927751
      20.80000000      47.71320820      44.41598322      51.38207069       1.78926572
      20.90000000      47.59960586      44.41598256      51.38190614       1.78925999
      21.00000000      47.42945740      45.58401840      51.38157197       1.78924835
      21.10000000      47.31584649      45.58401907      51.38141073       1.78924274
      21.20000000      47.14568699      45.00000000      51.38107998       1.78923122
      21.30000000      47.03206743      45.00000000      51.38092214       1.78922572
      21.40000000      46.91844446      45.00000000      51.38076575       1.78922028
      21.50000000      46.74826392      45.00000000      51.38044292       1.78920904
      21.60000000      46.63463220      45.00000000      51.38029004       1.78920371
      21.70000000      46.46443806      45.00000000      51.37997212       1.78919264
      21.80000000      46.40735842      45.00000000      51.37998878       1.78919322
      21.90000000      46.23715111      45.59959941      51.37967630       1.78918234
      22.00000000      46.06693785      45.59960043      51.37936556       1.78917152
      22.10000000      45.95328493      44.40039886      51.37922152       1.78916650
      22.20000000      45.83962849      44.40039814      51.37907906       1.78916154
      22.30000000      45.61282462      45.00000000      51.37861240       1.78914529
      22.40000000      45.55573284      45.00000000      51.37863596       1.78914611
      22.50000000      45.44206381      45.00000000      51.37849896       1.78914134
      22.60000000      45.27181165      45.00000000      51.37820340       1.78913105
      22.70000000      45.15813350      45.00000000      51.37807037       1.78912642
      22.80000000      45.04445174      45.00000000      51.37793902       1.78912184
      22.90000000      44.87417979      45.00000000      51.37765144       1.78911183
      23.00000000      44.76048627      45.61603629      51.37752543       1.78910744
      23.10000000      44.64679163      44.38396295      51.37739989       1.78910307
      23.20000000      44.47649965      44.38396184      51.37712058       1.78909334
      23.30000000      44.36279566      45.61603892      51.37699926       1.78908912
      23.40000000      44.24908798      45.61603969      51.37687972       1.78908496
      23.50000000      44.07877823      45.00000000      51.37660771       1.78907548
      23.60000000      44.02166400      45.00000000      51.37664479       1.78907678
      23.70000000      43.85134019      45.00000000      51.37637917       1.78906753
      23.80000000      43.73761556      45.00000000      51.37626766       1.78906364
      23.90000000      43.62388716      45.00000000      51.37615801       1.78905982
      24.00000000      43.51015498      45.00000000      51.37605024       1.78905607
      24.10000000      43.39641901      45.00000000      51.37594435       1.78905238
      24.20000000      43.22606014      44.36659992      51.37569441       1.78904368
      24.30000000      43.11231446      44.36659910      51.37559317       1.78904015
      24.40000000      42.99856493      45.63340172      51.37549387       1.78903670
      24.50000000      42.88481155      45.63340254      51.37539653       1.78903331
      24.60000000      42.77105430      45.63340337      51.37530117       1.78902999
      24.70000000      42.60066758      45.00000000      51.37506381       1.78902172
      24.80000000      42.54353075      45.00000000      51.37511518       1.78902351
      24.90000000      42.37312932      45.00000000      51.37488485       1.78901549
      25.00000000      42.25935430      45.00000000      51.37479844       1.78901248
      25.10000000      42.14557532      45.00000000      51.37471410       1.78900954
      25.20000000      42.03179239      45.00000000      51.37463184       1.78900668
      25.30000000      41.91800547      45.00000000      51.37455168       1.78900389
      25.40000000      41.80421184      44.34822983      51.37447494       1.78900121
      25.50000000      41.69041693      45.65177105      51.37439902       1.78899857
      25.60000000      41.57661799      44.34822807      51.37432526       1.78899600
      25.70000000      41.46281501      44.34822719      51.37425366       1.78899351
      25.80000000      41.34900797      44.34822631      51.37418424       1.78899109
      25.90000000      41.17854394      45.00000000      51.37398436       1.78898413
      26.00000000      41.12138436      45.00000000      51.37405074       1.78898644
      26.10000000      41.00756505      45.00000000      51.37398799       1.78898426
      26.20000000      40.89374162      45.00000000      51.37392748       1.78898215
      26.30000000      40.77991406      45.00000000      51.37386925       1.78898012
      26.40000000      40.66608233      45.00000000      51.37381331       1.78897818
      26.50000000      40.55224644      45.00000000      51.37375967       1.78897631
      26.60000000      40.49507663      45.00000000      51.37383315       1.78897887
      26.70000000      40.32455924      44.32876207      51.37366073       1.78897286
      26.80000000      40.21071074      45.67123887      51.37361412       1.78897124
      26.90000000      40.09685799      45.67123981      51.37356989       1.78896970
      27.00000000      39.98300098      44.32875925      51.37352806       1.78896824
      27.10000000      39.86913969      45.67124170      51.37348865       1.78896687
      27.20000000      39.75527690      45.00000000      51.37345037       1.78896554
      27.30000000      39.64140700      45.00000000      51.37341585       1.78896433
      27.40000000      39.52753277      45.00000000      51.37338381       1.78896322
      27.50000000      39.41365419      45.00000000      51.37335427       1.78896219
      27.60000000      39.29977123      45.00000000      51.37332724       1.78896125
      27.70000000      39.18588389      45.00000000      51.37330274       1.78896040
      27.80000000      39.12869063      45.00000000      51.37339246       1.78896352
      27.90000000      39.01479395      44.30809726      51.37337328       1.78896285
      28.00000000      38.90089576      44.30809626      51.37335533       1.78896223
      28.10000000      38.78699311      44.30809526      51.37333998       1.78896169
      28.20000000      38.67308598      45.69190574      51.37332725       1.78896125
      28.30000000      38.55917436      45.69190675      51.37331717       1.78896090
      28.40000000      38.44525821      45.69190776      51.37330975       1.78896064
      28.50000000      38.38805471      45.00000000      51.37340755       1.78896405
      28.60000000      38.27413195      45.00000000      51.37340430       1.78896393
      28.70000000      38.16020462      45.00000000      51.37340376       1.78896391
      28.80000000      38.04627270      45.00000000      51.37340597       1.78896399
      28.90000000      37.93233616      45.00000000      51.37341093       1.78896416
      29.00000000      37.81839499      45.00000000      51.37341867       1.78896443
      29.10000000      37.76117717      45.00000000      51.37352609       1.78896817
      29.20000000      37.64722619      44.28611943      51.37353953       1.78896864
      29.30000000      37.53327356      45.71388163      51.37355444       1.78896916
      29.40000000      37.41931621      45.71388270      51.37357220       1.78896978
      29.50000000      37.36209099      44.28611671      51.37368507       1.78897371
      29.60000000      37.24812674      45.71388436      51.37370728       1.78897448
      29.70000000      37.13415772      44.28611457      51.37373240       1.78897536
      29.80000000      37.02018688      45.00000000      51.37375913       1.78897629
      29.90000000      36.96295412      45.00000000      51.37387758       1.78898041
      30.00000000      36.84897327      45.00000000      51.37391021       1.78898155
      30.10000000      36.73498758      45.00000000      51.37394583       1.78898279
      30.20000000      36.62099700      45.00000000      51.37398448       1.78898414
      30.30000000      36.56375657      45.00000000      51.37410865       1.78898846
      30.40000000      36.44975884      45.00000000      51.37415197       1.78898997
      30.50000000      36.39251513      45.00000000      51.37427866       1.78899438
      30.60000000      36.27850708      45.73730010      51.37432811       1.78899610
      30.70000000      36.16449718      44.26269876      51.37437928       1.78899788
      30.80000000      36.05048228      45.73730238      51.37443359       1.78899978
      30.90000000      35.93646235      44.26269648      51.37449106       1.78900178
      31.00000000      35.87920844      45.73730415      51.37462536       1.78900645
      31.10000000      35.76518113      44.26269471      51.37468774       1.78900863
      31.20000000      35.65115178      45.00000000      51.37475200       1.78901086
      31.30000000      35.59389214      45.00000000      51.37489066       1.78901569
      31.40000000      35.47985224      45.00000000      51.37496126       1.78901815
      31.50000000      35.42258917      45.00000000      51.37510259       1.78902307
      31.60000000      35.30854172      45.00000000      51.37517824       1.78902571
      31.70000000      35.19448907      45.00000000      51.37525723       1.78902846
      31.80000000      35.13722013      45.00000000      51.37540303       1.78903353
      31.90000000      35.07995010      45.00000000      51.37554977       1.78903864
      32.00000000      34.90909105      44.23769215      51.37557608       1.78903956
      32.10000000      34.85181616      45.76230851      51.37572643       1.78904480
      32.20000000      34.73774283      45.76230972      51.37581921       1.78904803
      32.30000000      34.68046437      45.76231038      51.37597234       1.78905336
      32.40000000      34.56638322      45.76231160      51.37607043       1.78905677
      32.50000000      34.45229667      44.23768718      51.37617202       1.78906031
      32.60000000      34.33820783      45.00000000      51.37627580       1.78906393
      32.70000000      34.28092076      45.00000000      51.37643550       1.78906949
      32.80000000      34.22363254      45.00000000      51.37659620       1.78907508
      32.90000000      34.10953002      45.00000000      51.37670869       1.78907900
      33.00000000      34.05223811      45.00000000      51.37687228       1.78908470
      33.10000000      33.93812751      45.00000000      51.37699031       1.78908881
      33.20000000      33.88083186      45.00000000      51.37715683       1.78909461
      33.30000000      33.76671310      45.00000000      51.37728046       1.78909891
      33.40000000      33.65258541      45.78906980      51.37740920       1.78910339
      33.50000000      33.59528340      45.78907050      51.37758063       1.78910936
      33.60000000      33.48115075      44.21092821      51.37771369       1.78911400
      33.70000000      33.42384491      44.21092751      51.37788814       1.78912007
      33.80000000      33.30970389      44.21092622      51.37802698       1.78912491
      33.90000000      33.25239418      44.21092552      51.37820447       1.78913109
      34.00000000      33.13824472      44.21092422      51.37834916       1.78913613
      34.10000000      33.02409268      45.00000000      51.37849639       1.78914125
      34.20000000      32.96677635      45.00000000      51.37867901       1.78914761
      34.30000000      32.90945879      45.00000000      51.37886270       1.78915401
      34.40000000      32.79529219      45.00000000      51.37901932       1.78915946
      34.50000000      32.73797064      45.00000000      51.37920616       1.78916597
      34.60000000      32.68064783      45.00000000      51.37939408       1.78917251
      34.70000000      32.56646978      45.00000000      51.37955886       1.78917825
      34.80000000      32.50914292      45.00000000      51.37974997       1.78918491
      34.90000000      32.45181479      45.00000000      51.37994218       1.78919160
      35.00000000      32.33762174      44.18222069      51.38011664       1.78919767
      35.10000000      32.22342601      44.18221932      51.38029382       1.78920384
      35.20000000      32.16609094      45.81778142      51.38049142       1.78921073
      35.30000000      32.05188623      44.18221720      51.38067491       1.78921711
      35.40000000      31.99454699      44.18221646      51.38087581       1.78922411
      35.50000000      31.93720643      44.18221571      51.38107783       1.78923115
      35.60000000      31.82298975      44.18221433      51.38126992       1.78923784
      35.70000000      31.76564827      45.00000000      51.38147397       1.78924494
      35.80000000      31.65142237      45.00000000      51.38167256       1.78925186
      35.90000000      31.59407329      45.00000000      51.38188133       1.78925913
      36.00000000      31.53672284      45.00000000      51.38209126       1.78926644
      36.10000000      31.42248468      45.00000000      51.38229870       1.78927366
      36.20000000      31.36512989      45.00000000      51.38251207       1.78928109
      36.30000000      31.25088230      45.00000000      51.38272619       1.78928855
      36.40000000      31.19352311      45.00000000      51.38294304       1.78929610
      36.50000000      31.13615904      45.84865454      51.38316247       1.78930374
      36.60000000      31.02189888      44.15134400      51.38338568       1.78931151
      36.70000000      30.96453384      44.15134322      51.38360725       1.78931923
      36.80000000      30.90716738      44.15134243      51.38383002       1.78932698
      36.90000000      30.79289446      45.84865903      51.38406248       1.78933508
      37.00000000      30.73552346      45.84865983      51.38428884       1.78934296
      37.10000000      30.62124073      44.15133871      51.38452829       1.78935130
      37.20000000      30.56386514      44.15133792      51.38475828       1.78935931
      37.30000000      30.50649149      45.00000000      51.38498819       1.78936732
      37.40000000      30.39219563      45.00000000      51.38523716       1.78937599
      37.50000000      30.33481392      45.00000000      51.38547209       1.78938417
      37.60000000      30.27743071      45.00000000      51.38570828       1.78939239
      37.70000000      30.22004602      45.00000000      51.38594572       1.78940066
      37.80000000      30.10573361      45.00000000      51.38620685       1.78940975
      37.90000000      30.04834416      45.00000000      51.38644806       1.78941815
      38.00000000      29.99095319      45.00000000      51.38669055       1.78942660
      38.10000000      29.93356069      45.00000000      51.38693433       1.78943509
      38.20000000      29.81922785      45.88195338      51.38720923       1.78944466
      38.30000000      29.76183051      45.88195422      51.38745684       1.78945328
      38.40000000      29.64749078      45.88195577      51.38773788       1.78946307
      38.50000000      29.59008852      44.11804340      51.38798937       1.78947182
      38.60000000      29.53268468      44.11804256      51.38824218       1.78948063
      38.70000000      29.47527927      44.11804172      51.38849631       1.78948948
      38.80000000      29.36092211      44.11804016      51.38879018       1.78949971
      38.90000000      29.30351168      44.11803932      51.38904828       1.78950870
      39.00000000      29.24610310      45.00000000      51.38930641       1.78951769
      39.10000000      29.18868944      45.00000000      51.38956721       1.78952677
      39.20000000      29.07431448      45.00000000      51.38987420       1.78953746
      39.30000000      29.01689568      45.00000000      51.39013904       1.78954668
      39.40000000      28.95947524      45.00000000      51.39040526       1.78955595
      39.50000000      28.90205314      45.00000000      51.39067286       1.78956527
      39.60000000      28.78766002      45.00000000      51.39099323       1.78957643
      39.70000000      28.73023268      45.00000000      51.39126495       1.78958589
      39.80000000      28.67280366      45.00000000      51.39153807       1.78959540
      39.90000000      28.61536930      44.08203060      51.39181395       1.78960501
      40.00000000      28.50095765      45.91797104      51.39214798       1.78961664
