 # applied field (T), theta (degree), phi (degree), abs [muB/unitcell], abs [T]
       0.00000000       0.00000000       0.00000000      35.70512208       1.19361512
       0.10000000       0.39843764     360.00000000      35.70511219       1.19361479
       0.20000000       0.79687589     360.00000000      35.70508253       1.19361380
       0.30000000       1.19531536     360.00000000      35.70503310       1.19361215
       0.40000000       1.59375665     360.00000000      35.70496392       1.19360983
       0.50000000       2.04901556     360.00000000      35.70485941       1.19360634
       0.60000000       2.44746285     360.00000000      35.70474771       1.19360261
       0.70000000       2.84591389     360.00000000      35.70461633       1.19359821
       0.80000000       3.24436927     360.00000000      35.70446530       1.19359316
       0.90000000       3.64282962     360.00000000      35.70429466       1.19358746
       1.00000000       4.04129553     360.00000000      35.70410444       1.19358110
       1.10000000       4.43976760     360.00000000      35.70389469       1.19357409
       1.20000000       4.83824645     360.00000000      35.70366547       1.19356643
       1.30000000       5.29355461     360.00000000      35.70337643       1.19355676
       1.40000000       5.69205003     360.00000000      35.70310542       1.19354770
       1.50000000       6.09055410     360.00000000      35.70281514       1.19353800
       1.60000000       6.48906742     360.00000000      35.70250564       1.19352765
       1.70000000       6.88759057     360.00000000      35.70217700       1.19351667
       1.80000000       7.28612415     360.00000000      35.70182931       1.19350504
       1.90000000       7.74149977     360.00000000      35.70140391       1.19349082
       2.00000000       8.14005775     360.00000000      35.70101544       1.19347784
       2.10000000       8.53862800     360.00000000      35.70060819       1.19346422
       2.20000000       8.93721109     360.00000000      35.70018226       1.19344998
       2.30000000       9.33580760     360.00000000      35.69973777       1.19343512
       2.40000000       9.73441810     360.00000000      35.69927482       1.19341965
       2.50000000      10.18988657     360.00000000      35.69871695       1.19340100
       2.60000000      10.58852908     360.00000000      35.69821458       1.19338420
       2.70000000      10.98718735     360.00000000      35.69769412       1.19336681
       2.80000000      11.38586195     360.00000000      35.69715569       1.19334881
       2.90000000      11.78455344     360.00000000      35.69659943       1.19333021
       3.00000000      12.24011861     360.00000000      35.69593447       1.19330798
       3.10000000      12.63884825     360.00000000      35.69534021       1.19328811
       3.20000000      13.03759648     360.00000000      35.69472856       1.19326767
       3.30000000      13.43636385     360.00000000      35.69409967       1.19324664
       3.40000000      13.89201907     360.00000000      35.69335142       1.19322163
       3.50000000      14.29082938     360.00000000      35.69268584       1.19319938
       3.60000000      14.68966047     360.00000000      35.69200352       1.19317657
       3.70000000      15.14539104     360.00000000      35.69119407       1.19314951
       3.80000000      15.54426859     360.00000000      35.69047616       1.19312551
       3.90000000      15.94316854     360.00000000      35.68974202       1.19310097
       4.00000000      16.39898028     360.00000000      35.68887328       1.19307193
       4.10000000      16.79793009     360.00000000      35.68810475       1.19304623
       4.20000000      17.19690386     360.00000000      35.68732057       1.19302002
       4.30000000      17.65280244     360.00000000      35.68639458       1.19298906
       4.40000000      18.05182936     360.00000000      35.68557726       1.19296174
       4.50000000      18.45088174     360.00000000      35.68474488       1.19293392
       4.60000000      18.90687261     360.00000000      35.68376383       1.19290112
       4.70000000      19.30598131     360.00000000      35.68289965       1.19287223
       4.80000000      19.76203820     360.00000000      35.68188227       1.19283822
       4.90000000      20.16120531     360.00000000      35.68098723       1.19280830
       5.00000000      20.61733058     360.00000000      35.67993465       1.19277311
       5.10000000      21.01655813     360.00000000      35.67900973       1.19274219
       5.20000000      21.47275409     360.00000000      35.67792307       1.19270586
       5.30000000      21.87204403     360.00000000      35.67696929       1.19267398
       5.40000000      22.32831291     360.00000000      35.67584973       1.19263655
       5.50000000      22.72766715     360.00000000      35.67486812       1.19260374
       5.60000000      23.18401109     360.00000000      35.67371687       1.19256525
       5.70000000      23.58343144     360.00000000      35.67270851       1.19253154
       5.80000000      24.03985251     360.00000000      35.67152681       1.19249204
       5.90000000      24.49631567     360.00000000      35.67032927       1.19245200
       6.00000000      24.89584092     360.00000000      35.66928191       1.19241699
       6.10000000      25.35238423     360.00000000      35.66805587       1.19237600
       6.20000000      25.80897120     360.00000000      35.66681505       1.19233452
       6.30000000      26.20860521     360.00000000      35.66573135       1.19229830
       6.40000000      26.66527515     360.00000000      35.66446406       1.19225593
       6.50000000      27.12199020     360.00000000      35.66318307       1.19221311
       6.60000000      27.57875085     360.00000000      35.66188877       1.19216984
       6.70000000      27.97853723     360.00000000      35.66076039       1.19213212
       6.80000000      28.43538433     360.00000000      35.65944243       1.19208806
       6.90000000      28.89227833     360.00000000      35.65811230       1.19204359
       7.00000000      29.34921967     360.00000000      35.65677040       1.19199873
       7.10000000      29.80620876     360.00000000      35.65541713       1.19195349
       7.20000000      30.26324600     360.00000000      35.65405289       1.19190789
       7.30000000      30.72033179     360.00000000      35.65267810       1.19186193
       7.40000000      31.17746649     360.00000000      35.65129317       1.19181563
       7.50000000      31.63465047     360.00000000      35.64989850       1.19176901
       7.60000000      32.09188407     360.00000000      35.64849451       1.19172207
       7.70000000      32.54916762     360.00000000      35.64708161       1.19167484
       7.80000000      33.00650143     360.00000000      35.64566024       1.19162732
       7.90000000      33.46388580     360.00000000      35.64423079       1.19157954
       8.00000000      33.97842551     360.00000000      35.64259598       1.19152489
       8.10000000      34.43591864     360.00000000      35.64115059       1.19147657
       8.20000000      34.89346320     360.00000000      35.63969847       1.19142802
       8.30000000      35.40818526     360.00000000      35.63803907       1.19137255
       8.40000000      35.86584025     360.00000000      35.63657383       1.19132357
       8.50000000      36.32354735     360.00000000      35.63510318       1.19127440
       8.60000000      36.83845433     360.00000000      35.63342390       1.19121826
       8.70000000      37.29627321     360.00000000      35.63194298       1.19116876
       8.80000000      37.81130726     360.00000000      35.63025281       1.19111226
       8.90000000      38.26923868     360.00000000      35.62876357       1.19106247
       9.00000000      38.78440059     360.00000000      35.62706471       1.19100568
       9.10000000      39.29963067     360.00000000      35.62536202       1.19094876
       9.20000000      39.75773551     360.00000000      35.62386373       1.19089867
       9.30000000      40.27309433     360.00000000      35.62215572       1.19084157
       9.40000000      40.78852170     360.00000000      35.62044566       1.19078440
       9.50000000      41.30401771     360.00000000      35.61873418       1.19072719
       9.60000000      41.81958240     360.00000000      35.61702189       1.19066995
       9.70000000      42.33521582     360.00000000      35.61530941       1.19061270
       9.80000000      42.85091798     360.00000000      35.61359735       1.19055547
       9.90000000      43.36668886     360.00000000      35.61188632       1.19049827
      10.00000000      43.88252842     360.00000000      35.61017693       1.19044112
      10.10000000      44.39843660     360.00000000      35.60846979       1.19038405
      10.20000000      44.97168786     360.00000000      35.60655649       1.19032009
      10.30000000      45.48774108     360.00000000      35.60485589       1.19026324
      10.40000000      46.06115426     360.00000000      35.60295098       1.19019956
      10.50000000      46.57735191     360.00000000      35.60125960       1.19014302
      10.60000000      47.15092624     360.00000000      35.59936604       1.19007972
      10.70000000      47.72458526     360.00000000      35.59747955       1.19001665
      10.80000000      48.29832866     360.00000000      35.59560093       1.18995385
      10.90000000      48.81482045     360.00000000      35.59393661       1.18989821
      11.00000000      49.44606717     360.00000000      35.59187054       1.18982914
      11.10000000      50.02006146     360.00000000      35.59002037       1.18976729
      11.20000000      50.59413851     360.00000000      35.58818126       1.18970581
      11.30000000      51.16829781     360.00000000      35.58635401       1.18964473
      11.40000000      51.79991946     360.00000000      35.58433874       1.18957736
      11.50000000      52.37425031     360.00000000      35.58253872       1.18951718
      11.60000000      53.00606045     360.00000000      35.58055493       1.18945087
      11.70000000      53.63796843     360.00000000      35.57858902       1.18938515
      11.80000000      54.26997337     360.00000000      35.57664199       1.18932006
      11.90000000      54.90207431     360.00000000      35.57471483       1.18925563
      12.00000000      55.53427028     360.00000000      35.57280850       1.18919190
      12.10000000      56.22400632     360.00000000      35.57073460       1.18912257
      12.20000000      56.91385415     360.00000000      35.56868756       1.18905414
      12.30000000      57.54634654     360.00000000      35.56685358       1.18899283
      12.40000000      58.23640382     360.00000000      35.56486156       1.18892624
      12.50000000      58.98405329     360.00000000      35.56271972       1.18885464
      12.60000000      59.67433286     360.00000000      35.56079213       1.18879020
      12.70000000      60.42222051     360.00000000      35.55872253       1.18872101
      12.80000000      61.17022905     360.00000000      35.55669253       1.18865315
      12.90000000      61.91835612     360.00000000      35.55470353       1.18858666
      13.00000000      62.72413343     360.00000000      35.55259160       1.18851606
      13.10000000      63.53004363     360.00000000      35.55053023       1.18844715
      13.20000000      64.39363827     360.00000000      35.54836324       1.18837470
      13.30000000      65.19981387     360.00000000      35.54641168       1.18830946
      13.40000000      66.12126152     360.00000000      35.54421614       1.18823607
      13.50000000      66.98528138     360.00000000      35.54223981       1.18817000
      13.60000000      67.96462457     360.00000000      35.54004991       1.18809679
      13.70000000      68.94413465     360.00000000      35.53794843       1.18802654
      13.80000000      69.98142107     360.00000000      35.53580837       1.18795500
      13.90000000      71.01887958     360.00000000      35.53377277       1.18788695
      14.00000000      72.17177530     360.00000000      35.53160980       1.18781464
      14.10000000      73.38251117     360.00000000      35.52947217       1.18774318
      14.20000000      74.65110396     360.00000000      35.52738498       1.18767341
      14.30000000      76.09290492     360.00000000      35.52518791       1.18759996
      14.40000000      77.65030478     360.00000000      35.52304974       1.18752848
      14.50000000      79.43871355     360.00000000      35.52089119       1.18745632
      14.60000000      81.57360793     360.00000000      35.51874294       1.18738450
      14.70000000      84.51677714     360.00000000      35.51655529       1.18731137
      14.80000000      90.00000000     360.00000000      35.51500631       1.18725959
      14.90000000      90.00000000     360.00000000      35.51526118       1.18726811
      15.00000000      90.00000000     360.00000000      35.51551602       1.18727663
      15.10000000      90.00000000     360.00000000      35.51577085       1.18728515
      15.20000000      90.00000000     360.00000000      35.51602565       1.18729366
      15.30000000      90.00000000     360.00000000      35.51628042       1.18730218
      15.40000000      90.00000000     360.00000000      35.51653518       1.18731070
      15.50000000      90.00000000     360.00000000      35.51678991       1.18731921
      15.60000000      90.00000000     360.00000000      35.51704463       1.18732773
      15.70000000      90.00000000     360.00000000      35.51729932       1.18733624
      15.80000000      90.00000000     360.00000000      35.51755398       1.18734476
      15.90000000      90.00000000     360.00000000      35.51780863       1.18735327
      16.00000000      90.00000000     360.00000000      35.51806325       1.18736178
      16.10000000      90.00000000     360.00000000      35.51831785       1.18737029
      16.20000000      90.00000000     360.00000000      35.51857243       1.18737880
      16.30000000      90.00000000     360.00000000      35.51882699       1.18738731
      16.40000000      90.00000000     360.00000000      35.51908153       1.18739582
      16.50000000      90.00000000     360.00000000      35.51933604       1.18740433
      16.60000000      90.00000000     360.00000000      35.51959053       1.18741284
      16.70000000      90.00000000     360.00000000      35.51984500       1.18742134
      16.80000000      90.00000000     360.00000000      35.52009945       1.18742985
      16.90000000      90.00000000     360.00000000      35.52035387       1.18743836
      17.00000000      90.00000000     360.00000000      35.52060828       1.18744686
      17.10000000      90.00000000     360.00000000      35.52086266       1.18745537
      17.20000000      90.00000000     360.00000000      35.52111702       1.18746387
      17.30000000      90.00000000     360.00000000      35.52137135       1.18747237
      17.40000000      90.00000000     360.00000000      35.52162567       1.18748087
      17.50000000      90.00000000     360.00000000      35.52187996       1.18748937
      17.60000000      90.00000000     360.00000000      35.52213423       1.18749787
      17.70000000      90.00000000     360.00000000      35.52238848       1.18750637
      17.80000000      90.00000000     360.00000000      35.52264271       1.18751487
      17.90000000      90.00000000     360.00000000      35.52289692       1.18752337
      18.00000000      90.00000000     360.00000000      35.52315110       1.18753187
      18.10000000      90.00000000     360.00000000      35.52340526       1.18754036
      18.20000000      90.00000000     360.00000000      35.52365940       1.18754886
      18.30000000      90.00000000     360.00000000      35.52391352       1.18755735
      18.40000000      90.00000000     360.00000000      35.52416762       1.18756585
      18.50000000      90.00000000     360.00000000      35.52442169       1.18757434
      18.60000000      90.00000000     360.00000000      35.52467575       1.18758284
      18.70000000      90.00000000     360.00000000      35.52492978       1.18759133
      18.80000000      90.00000000     360.00000000      35.52518379       1.18759982
      18.90000000      90.00000000     360.00000000      35.52543777       1.18760831
      19.00000000      90.00000000     360.00000000      35.52569174       1.18761680
      19.10000000      90.00000000     360.00000000      35.52594568       1.18762529
      19.20000000      90.00000000     360.00000000      35.52619960       1.18763378
      19.30000000      90.00000000     360.00000000      35.52645350       1.18764227
      19.40000000      90.00000000     360.00000000      35.52670738       1.18765075
      19.50000000      90.00000000     360.00000000      35.52696124       1.18765924
      19.60000000      90.00000000     360.00000000      35.52721507       1.18766773
      19.70000000      90.00000000     360.00000000      35.52746889       1.18767621
      19.80000000      90.00000000     360.00000000      35.52772268       1.18768469
      19.90000000      90.00000000     360.00000000      35.52797645       1.18769318
      20.00000000      90.00000000     360.00000000      35.52823019       1.18770166
      20.10000000      90.00000000     360.00000000      35.52848392       1.18771014
      20.20000000      90.00000000     360.00000000      35.52873762       1.18771862
      20.30000000      90.00000000     360.00000000      35.52899131       1.18772710
      20.40000000      90.00000000     360.00000000      35.52924497       1.18773558
      20.50000000      90.00000000     360.00000000      35.52949861       1.18774406
      20.60000000      90.00000000     360.00000000      35.52975222       1.18775254
      20.70000000      90.00000000     360.00000000      35.53000582       1.18776102
      20.80000000      90.00000000     360.00000000      35.53025939       1.18776950
      20.90000000      90.00000000     360.00000000      35.53051294       1.18777797
      21.00000000      90.00000000     360.00000000      35.53076648       1.18778645
      21.10000000      90.00000000     360.00000000      35.53101998       1.18779492
      21.20000000      90.00000000     360.00000000      35.53127347       1.18780340
      21.30000000      90.00000000     360.00000000      35.53152694       1.18781187
      21.40000000      90.00000000     360.00000000      35.53178038       1.18782034
      21.50000000      90.00000000     360.00000000      35.53203380       1.18782881
      21.60000000      90.00000000     360.00000000      35.53228720       1.18783729
      21.70000000      90.00000000     360.00000000      35.53254058       1.18784576
      21.80000000      90.00000000     360.00000000      35.53279394       1.18785423
      21.90000000      90.00000000     360.00000000      35.53304728       1.18786269
      22.00000000      90.00000000     360.00000000      35.53330059       1.18787116
      22.10000000      90.00000000     360.00000000      35.53355389       1.18787963
      22.20000000      90.00000000     360.00000000      35.53380716       1.18788810
      22.30000000      90.00000000     360.00000000      35.53406041       1.18789656
      22.40000000      90.00000000     360.00000000      35.53431363       1.18790503
      22.50000000      90.00000000     360.00000000      35.53456684       1.18791349
      22.60000000      90.00000000     360.00000000      35.53482003       1.18792196
      22.70000000      90.00000000     360.00000000      35.53507319       1.18793042
      22.80000000      90.00000000     360.00000000      35.53532633       1.18793888
      22.90000000      90.00000000     360.00000000      35.53557945       1.18794734
      23.00000000      90.00000000     360.00000000      35.53583255       1.18795581
      23.10000000      90.00000000     360.00000000      35.53608563       1.18796427
      23.20000000      90.00000000     360.00000000      35.53633869       1.18797273
      23.30000000      90.00000000     360.00000000      35.53659172       1.18798118
      23.40000000      90.00000000     360.00000000      35.53684473       1.18798964
      23.50000000      90.00000000     360.00000000      35.53709773       1.18799810
      23.60000000      90.00000000     360.00000000      35.53735070       1.18800656
      23.70000000      90.00000000     360.00000000      35.53760365       1.18801501
      23.80000000      90.00000000     360.00000000      35.53785657       1.18802347
      23.90000000      90.00000000     360.00000000      35.53810948       1.18803192
      24.00000000      90.00000000     360.00000000      35.53836236       1.18804038
      24.10000000      90.00000000     360.00000000      35.53861523       1.18804883
      24.20000000      90.00000000     360.00000000      35.53886807       1.18805728
      24.30000000      90.00000000     360.00000000      35.53912089       1.18806573
      24.40000000      90.00000000     360.00000000      35.53937369       1.18807419
      24.50000000      90.00000000     360.00000000      35.53962647       1.18808264
      24.60000000      90.00000000     360.00000000      35.53987922       1.18809109
      24.70000000      90.00000000     360.00000000      35.54013196       1.18809953
      24.80000000      90.00000000     360.00000000      35.54038467       1.18810798
      24.90000000      90.00000000     360.00000000      35.54063736       1.18811643
      25.00000000      90.00000000     360.00000000      35.54089003       1.18812488
      25.10000000      90.00000000     360.00000000      35.54114268       1.18813332
      25.20000000      90.00000000     360.00000000      35.54139531       1.18814177
      25.30000000      90.00000000     360.00000000      35.54164792       1.18815021
      25.40000000      90.00000000     360.00000000      35.54190050       1.18815866
      25.50000000      90.00000000     360.00000000      35.54215307       1.18816710
      25.60000000      90.00000000     360.00000000      35.54240561       1.18817554
      25.70000000      90.00000000     360.00000000      35.54265813       1.18818398
      25.80000000      90.00000000     360.00000000      35.54291063       1.18819242
      25.90000000      90.00000000     360.00000000      35.54316311       1.18820086
      26.00000000      90.00000000     360.00000000      35.54341557       1.18820930
      26.10000000      90.00000000     360.00000000      35.54366801       1.18821774
      26.20000000      90.00000000     360.00000000      35.54392042       1.18822618
      26.30000000      90.00000000     360.00000000      35.54417282       1.18823462
      26.40000000      90.00000000     360.00000000      35.54442519       1.18824306
      26.50000000      90.00000000     360.00000000      35.54467754       1.18825149
      26.60000000      90.00000000     360.00000000      35.54492987       1.18825993
      26.70000000      90.00000000     360.00000000      35.54518218       1.18826836
      26.80000000      90.00000000     360.00000000      35.54543447       1.18827680
      26.90000000      90.00000000     360.00000000      35.54568674       1.18828523
      27.00000000      90.00000000     360.00000000      35.54593898       1.18829366
      27.10000000      90.00000000     360.00000000      35.54619121       1.18830209
      27.20000000      90.00000000     360.00000000      35.54644341       1.18831052
      27.30000000      90.00000000     360.00000000      35.54669560       1.18831896
      27.40000000      90.00000000     360.00000000      35.54694776       1.18832738
      27.50000000      90.00000000     360.00000000      35.54719990       1.18833581
      27.60000000      90.00000000     360.00000000      35.54745202       1.18834424
      27.70000000      90.00000000     360.00000000      35.54770411       1.18835267
      27.80000000      90.00000000     360.00000000      35.54795619       1.18836110
      27.90000000      90.00000000     360.00000000      35.54820825       1.18836952
      28.00000000      90.00000000     360.00000000      35.54846028       1.18837795
      28.10000000      90.00000000     360.00000000      35.54871229       1.18838637
      28.20000000      90.00000000     360.00000000      35.54896429       1.18839480
      28.30000000      90.00000000     360.00000000      35.54921626       1.18840322
      28.40000000      90.00000000     360.00000000      35.54946821       1.18841164
      28.50000000      90.00000000     360.00000000      35.54972014       1.18842006
      28.60000000      90.00000000     360.00000000      35.54997205       1.18842849
      28.70000000      90.00000000     360.00000000      35.55022393       1.18843691
      28.80000000      90.00000000     360.00000000      35.55047580       1.18844533
      28.90000000      90.00000000     360.00000000      35.55072765       1.18845375
      29.00000000      90.00000000     360.00000000      35.55097947       1.18846216
      29.10000000      90.00000000     360.00000000      35.55123127       1.18847058
      29.20000000      90.00000000     360.00000000      35.55148306       1.18847900
      29.30000000      90.00000000     360.00000000      35.55173482       1.18848742
      29.40000000      90.00000000     360.00000000      35.55198656       1.18849583
      29.50000000      90.00000000     360.00000000      35.55223828       1.18850425
      29.60000000      90.00000000     360.00000000      35.55248997       1.18851266
      29.70000000      90.00000000     360.00000000      35.55274165       1.18852107
      29.80000000      90.00000000     360.00000000      35.55299331       1.18852949
      29.90000000      90.00000000     360.00000000      35.55324494       1.18853790
      30.00000000      90.00000000     360.00000000      35.55349656       1.18854631
      30.10000000      90.00000000     360.00000000      35.55374815       1.18855472
      30.20000000      90.00000000     360.00000000      35.55399972       1.18856313
      30.30000000      90.00000000     360.00000000      35.55425128       1.18857154
      30.40000000      90.00000000     360.00000000      35.55450281       1.18857995
      30.50000000      90.00000000     360.00000000      35.55475432       1.18858836
      30.60000000      90.00000000     360.00000000      35.55500581       1.18859676
      30.70000000      90.00000000     360.00000000      35.55525727       1.18860517
      30.80000000      90.00000000     360.00000000      35.55550872       1.18861358
      30.90000000      90.00000000     360.00000000      35.55576015       1.18862198
      31.00000000      90.00000000     360.00000000      35.55601155       1.18863039
      31.10000000      90.00000000     360.00000000      35.55626294       1.18863879
      31.20000000      90.00000000     360.00000000      35.55651430       1.18864719
      31.30000000      90.00000000     360.00000000      35.55676565       1.18865559
      31.40000000      90.00000000     360.00000000      35.55701697       1.18866400
      31.50000000      90.00000000     360.00000000      35.55726827       1.18867240
      31.60000000      90.00000000     360.00000000      35.55751955       1.18868080
      31.70000000      90.00000000     360.00000000      35.55777081       1.18868920
      31.80000000      90.00000000     360.00000000      35.55802205       1.18869760
      31.90000000      90.00000000     360.00000000      35.55827327       1.18870599
      32.00000000      90.00000000     360.00000000      35.55852447       1.18871439
      32.10000000      90.00000000     360.00000000      35.55877564       1.18872279
      32.20000000      90.00000000     360.00000000      35.55902680       1.18873118
      32.30000000      90.00000000     360.00000000      35.55927794       1.18873958
      32.40000000      90.00000000     360.00000000      35.55952905       1.18874797
      32.50000000      90.00000000     360.00000000      35.55978014       1.18875637
      32.60000000      90.00000000     360.00000000      35.56003122       1.18876476
      32.70000000      90.00000000     360.00000000      35.56028227       1.18877315
      32.80000000      90.00000000     360.00000000      35.56053330       1.18878155
      32.90000000      90.00000000     360.00000000      35.56078431       1.18878994
      33.00000000      90.00000000     360.00000000      35.56103530       1.18879833
      33.10000000      90.00000000     360.00000000      35.56128627       1.18880672
      33.20000000      90.00000000     360.00000000      35.56153722       1.18881511
      33.30000000      90.00000000     360.00000000      35.56178815       1.18882350
      33.40000000      90.00000000     360.00000000      35.56203906       1.18883188
      33.50000000      90.00000000     360.00000000      35.56228995       1.18884027
      33.60000000      90.00000000     360.00000000      35.56254081       1.18884866
      33.70000000      90.00000000     360.00000000      35.56279166       1.18885704
      33.80000000      90.00000000     360.00000000      35.56304248       1.18886543
      33.90000000      90.00000000     360.00000000      35.56329329       1.18887381
      34.00000000      90.00000000     360.00000000      35.56354407       1.18888220
      34.10000000      90.00000000     360.00000000      35.56379484       1.18889058
      34.20000000      90.00000000     360.00000000      35.56404558       1.18889896
      34.30000000      90.00000000     360.00000000      35.56429630       1.18890734
      34.40000000      90.00000000     360.00000000      35.56454700       1.18891572
      34.50000000      90.00000000     360.00000000      35.56479769       1.18892410
      34.60000000      90.00000000     360.00000000      35.56504835       1.18893248
      34.70000000      90.00000000     360.00000000      35.56529899       1.18894086
      34.80000000      90.00000000     360.00000000      35.56554961       1.18894924
      34.90000000      90.00000000     360.00000000      35.56580020       1.18895762
      35.00000000      90.00000000     360.00000000      35.56605078       1.18896600
      35.10000000      90.00000000     360.00000000      35.56630134       1.18897437
      35.20000000      90.00000000     360.00000000      35.56655188       1.18898275
      35.30000000      90.00000000     360.00000000      35.56680240       1.18899112
      35.40000000      90.00000000     360.00000000      35.56705289       1.18899950
      35.50000000      90.00000000     360.00000000      35.56730337       1.18900787
      35.60000000      90.00000000     360.00000000      35.56755382       1.18901624
      35.70000000      90.00000000     360.00000000      35.56780426       1.18902461
      35.80000000      90.00000000     360.00000000      35.56805467       1.18903298
      35.90000000      90.00000000     360.00000000      35.56830507       1.18904136
      36.00000000      90.00000000     360.00000000      35.56855544       1.18904973
      36.10000000      90.00000000     360.00000000      35.56880580       1.18905809
      36.20000000      90.00000000     360.00000000      35.56905613       1.18906646
      36.30000000      90.00000000     360.00000000      35.56930644       1.18907483
      36.40000000      90.00000000     360.00000000      35.56955673       1.18908320
      36.50000000      90.00000000     360.00000000      35.56980701       1.18909156
      36.60000000      90.00000000     360.00000000      35.57005726       1.18909993
      36.70000000      90.00000000     360.00000000      35.57030749       1.18910830
      36.80000000      90.00000000     360.00000000      35.57055770       1.18911666
      36.90000000      90.00000000     360.00000000      35.57080789       1.18912502
      37.00000000      90.00000000     360.00000000      35.57105806       1.18913339
      37.10000000      90.00000000     360.00000000      35.57130821       1.18914175
      37.20000000      90.00000000     360.00000000      35.57155834       1.18915011
      37.30000000      90.00000000     360.00000000      35.57180845       1.18915847
      37.40000000      90.00000000     360.00000000      35.57205853       1.18916683
      37.50000000      90.00000000     360.00000000      35.57230860       1.18917519
      37.60000000      90.00000000     360.00000000      35.57255865       1.18918355
      37.70000000      90.00000000     360.00000000      35.57280868       1.18919191
      37.80000000      90.00000000     360.00000000      35.57305869       1.18920027
      37.90000000      90.00000000     360.00000000      35.57330867       1.18920862
      38.00000000      90.00000000     360.00000000      35.57355864       1.18921698
      38.10000000      90.00000000     360.00000000      35.57380859       1.18922534
      38.20000000      90.00000000     360.00000000      35.57405851       1.18923369
      38.30000000      90.00000000     360.00000000      35.57430842       1.18924205
      38.40000000      90.00000000     360.00000000      35.57455830       1.18925040
      38.50000000      90.00000000     360.00000000      35.57480817       1.18925875
      38.60000000      90.00000000     360.00000000      35.57505801       1.18926711
      38.70000000      90.00000000     360.00000000      35.57530784       1.18927546
      38.80000000      90.00000000     360.00000000      35.57555764       1.18928381
      38.90000000      90.00000000     360.00000000      35.57580743       1.18929216
      39.00000000      90.00000000     360.00000000      35.57605719       1.18930051
      39.10000000      90.00000000     360.00000000      35.57630694       1.18930886
      39.20000000      90.00000000     360.00000000      35.57655666       1.18931720
      39.30000000      90.00000000     360.00000000      35.57680637       1.18932555
      39.40000000      90.00000000     360.00000000      35.57705605       1.18933390
      39.50000000      90.00000000     360.00000000      35.57730571       1.18934225
      39.60000000      90.00000000     360.00000000      35.57755536       1.18935059
      39.70000000      90.00000000     360.00000000      35.57780498       1.18935894
      39.80000000      90.00000000     360.00000000      35.57805458       1.18936728
      39.90000000      90.00000000     360.00000000      35.57830417       1.18937562
      40.00000000      90.00000000     360.00000000      35.57855373       1.18938397
