 # applied field (T), theta (degree), phi (degree), abs [muB/unitcell], abs [T]
       0.00000000       0.00000000       0.00000000      45.26359219       1.52349713
       0.10000000       0.34143232      45.00000000      45.26359448       1.52349721
       0.20000000       0.68286542      45.00000000      45.26360134       1.52349744
       0.30000000       1.08108755      45.00000000      45.26361464       1.52349789
       0.40000000       1.42252507      45.00000000      45.26363127       1.52349845
       0.50000000       1.76396587      45.00000000      45.26365248       1.52349916
       0.60000000       2.10541074      45.00000000      45.26367829       1.52350003
       0.70000000       2.44686048      45.00000000      45.26370869       1.52350106
       0.80000000       2.84510719      45.00000000      45.26374875       1.52350240
       0.90000000       3.18657016      45.00000000      45.26378902       1.52350376
       1.00000000       3.52804047      45.00000000      45.26383393       1.52350527
       1.10000000       3.86951891      45.00000000      45.26388350       1.52350694
       1.20000000       4.26780333      45.00000000      45.26394537       1.52350902
       1.30000000       4.60930209      45.00000000      45.26400494       1.52351103
       1.40000000       4.95081146      45.00000000      45.26406923       1.52351319
       1.50000000       5.29233222      45.00000000      45.26413826       1.52351551
       1.60000000       5.69067020      45.00000000      45.26422232       1.52351834
       1.70000000       6.03221832      45.00000000      45.26430155       1.52352101
       1.80000000       6.37378030      45.00000000      45.26438558       1.52352384
       1.90000000       6.77216955      45.00000000      45.26448680       1.52352725
       2.00000000       7.11376421      45.00000000      45.26458121       1.52353042
       2.10000000       7.51219378      45.00000000      45.26469429       1.52353423
       2.20000000       7.85382473      45.00000000      45.26479921       1.52353776
       2.30000000       8.19547363      45.00000000      45.26490909       1.52354146
       2.40000000       8.59396967      45.00000000      45.26503989       1.52354586
       2.50000000       8.93566011      45.00000000      45.26516048       1.52354992
       2.60000000       9.33420678      45.00000000      45.26530357       1.52355474
       2.70000000       9.73278246      45.00000000      45.26545327       1.52355978
       2.80000000      10.07454376      45.00000000      45.26559058       1.52356440
       2.90000000      10.47317643      45.00000000      45.26575284       1.52356986
       3.00000000      10.81498823      45.00000000      45.26590125       1.52357485
       3.10000000      11.21368196      45.00000000      45.26607626       1.52358074
       3.20000000      11.61241026      45.00000000      45.26625815       1.52358687
       3.30000000      12.01117432      45.00000000      45.26644695       1.52359322
       3.40000000      12.35310211      45.00000000      45.26661878       1.52359900
       3.50000000      12.75193554      45.00000000      45.26682071       1.52360580
       3.60000000      13.15080800      45.00000000      45.26702971       1.52361284
       3.70000000      13.54972061      45.00000000      45.26724582       1.52362011
       3.80000000      13.94867448      45.00000000      45.26746909       1.52362763
       3.90000000      14.34767074      45.00000000      45.26769958       1.52363538
       4.00000000      14.74671046      45.00000000      45.26793732       1.52364338
       4.10000000      15.20271029      45.00000000      45.26821260       1.52365265
       4.20000000      15.60184689      45.00000000      45.26846589       1.52366118
       4.30000000      16.00103032      45.00000000      45.26872654       1.52366995
       4.40000000      16.45719872      45.00000000      45.26902777       1.52368009
       4.50000000      16.85648610      45.00000000      45.26930419       1.52368939
       4.60000000      17.31277617      45.00000000      45.26962326       1.52370013
       4.70000000      17.71217212      45.00000000      45.26991553       1.52370997
       4.80000000      18.16858907      45.00000000      45.27025253       1.52372131
       4.90000000      18.62507581      45.00000000      45.27059905       1.52373297
       5.00000000      19.08163375      45.00000000      45.27095510       1.52374496
       5.10000000      19.53826424      45.00000000      45.27132068       1.52375726
       5.20000000      19.99496861      45.00000000      45.27169575       1.52376989
       5.30000000      20.45174815      45.00000000      45.27208030       1.52378283
       5.40000000      20.96563019      45.00000000      45.27251818       1.52379757
       5.50000000      21.42257369      45.00000000      45.27292261       1.52381118
       5.60000000      21.93664345      45.00000000      45.27338252       1.52382666
       5.70000000      22.45081500      45.00000000      45.27385390       1.52384253
       5.80000000      22.96508984      45.00000000      45.27433660       1.52385877
       5.90000000      23.53655316      45.00000000      45.27488029       1.52387707
       6.00000000      24.05105082      45.00000000      45.27538631       1.52389411
       6.10000000      24.62276525      45.00000000      45.27595526       1.52391326
       6.20000000      25.25173869      45.00000000      45.27659051       1.52393464
       6.30000000      25.82373762      45.00000000      45.27718593       1.52395468
       6.40000000      26.45302767      45.00000000      45.27784925       1.52397700
       6.50000000      27.08248589      45.00000000      45.27852644       1.52399980
       6.60000000      27.76929981      45.00000000      45.27927512       1.52402500
       6.70000000      28.51352195      45.00000000      45.28009802       1.52405269
       6.80000000      90.00000000      45.00000000      45.30269021       1.52481311
       6.90000000      90.00000000      45.00000000      45.30273649       1.52481467
       7.00000000      90.00000000      45.00000000      45.30278277       1.52481622
       7.10000000      90.00000000      45.00000000      45.30282906       1.52481778
       7.20000000      90.00000000      45.00000000      45.30287536       1.52481934
       7.30000000      90.00000000      45.00000000      45.30292166       1.52482090
       7.40000000      90.00000000      45.00000000      45.30296797       1.52482246
       7.50000000      90.00000000      45.00000000      45.30301428       1.52482402
       7.60000000      90.00000000      45.00000000      45.30306060       1.52482558
       7.70000000      90.00000000      45.00000000      45.30310692       1.52482714
       7.80000000      90.00000000      45.00000000      45.30315325       1.52482869
       7.90000000      90.00000000      45.00000000      45.30319959       1.52483025
       8.00000000      90.00000000      45.00000000      45.30324593       1.52483181
       8.10000000      90.00000000      45.00000000      45.30329228       1.52483337
       8.20000000      90.00000000      45.00000000      45.30333863       1.52483493
       8.30000000      90.00000000      45.00000000      45.30338499       1.52483649
       8.40000000      90.00000000      45.00000000      45.30343136       1.52483806
       8.50000000      90.00000000      45.00000000      45.30347773       1.52483962
       8.60000000      90.00000000      45.00000000      45.30352411       1.52484118
       8.70000000      90.00000000      45.00000000      45.30357049       1.52484274
       8.80000000      90.00000000      45.00000000      45.30361688       1.52484430
       8.90000000      90.00000000      45.00000000      45.30366328       1.52484586
       9.00000000      90.00000000      45.00000000      45.30370968       1.52484742
       9.10000000      90.00000000      45.00000000      45.30375608       1.52484898
       9.20000000      90.00000000      45.00000000      45.30380250       1.52485055
       9.30000000      90.00000000      45.00000000      45.30384892       1.52485211
       9.40000000      90.00000000      45.00000000      45.30389534       1.52485367
       9.50000000      90.00000000      45.00000000      45.30394177       1.52485523
       9.60000000      90.00000000      45.00000000      45.30398821       1.52485680
       9.70000000      90.00000000      45.00000000      45.30403465       1.52485836
       9.80000000      90.00000000      45.00000000      45.30408110       1.52485992
       9.90000000      90.00000000      45.00000000      45.30412755       1.52486149
      10.00000000      90.00000000      45.00000000      45.30417401       1.52486305
      10.10000000      90.00000000      45.00000000      45.30422048       1.52486462
      10.20000000      90.00000000      45.00000000      45.30426695       1.52486618
      10.30000000      90.00000000      45.00000000      45.30431343       1.52486774
      10.40000000      90.00000000      45.00000000      45.30435991       1.52486931
      10.50000000      90.00000000      45.00000000      45.30440640       1.52487087
      10.60000000      90.00000000      45.00000000      45.30445290       1.52487244
      10.70000000      90.00000000      45.00000000      45.30449940       1.52487400
      10.80000000      90.00000000      45.00000000      45.30454591       1.52487557
      10.90000000      90.00000000      45.00000000      45.30459242       1.52487713
      11.00000000      90.00000000      45.00000000      45.30463894       1.52487870
      11.10000000      90.00000000      45.00000000      45.30468546       1.52488027
      11.20000000      90.00000000      45.00000000      45.30473199       1.52488183
      11.30000000      90.00000000      45.00000000      45.30477853       1.52488340
      11.40000000      90.00000000      45.00000000      45.30482507       1.52488497
      11.50000000      90.00000000      45.00000000      45.30487162       1.52488653
      11.60000000      90.00000000      45.00000000      45.30491818       1.52488810
      11.70000000      90.00000000      45.00000000      45.30496474       1.52488967
      11.80000000      90.00000000      45.00000000      45.30501130       1.52489123
      11.90000000      90.00000000      45.00000000      45.30505788       1.52489280
      12.00000000      90.00000000      45.00000000      45.30510445       1.52489437
      12.10000000      90.00000000      45.00000000      45.30515104       1.52489594
      12.20000000      90.00000000      45.00000000      45.30519763       1.52489750
      12.30000000      90.00000000      45.00000000      45.30524422       1.52489907
      12.40000000      90.00000000      45.00000000      45.30529083       1.52490064
      12.50000000      90.00000000      45.00000000      45.30533743       1.52490221
      12.60000000      90.00000000      45.00000000      45.30538405       1.52490378
      12.70000000      90.00000000      45.00000000      45.30543067       1.52490535
      12.80000000      90.00000000      45.00000000      45.30547729       1.52490692
      12.90000000      90.00000000      45.00000000      45.30552393       1.52490849
      13.00000000      90.00000000      45.00000000      45.30557056       1.52491006
      13.10000000      90.00000000      45.00000000      45.30561721       1.52491163
      13.20000000      90.00000000      45.00000000      45.30566386       1.52491320
      13.30000000      90.00000000      45.00000000      45.30571051       1.52491477
      13.40000000      90.00000000      45.00000000      45.30575717       1.52491634
      13.50000000      90.00000000      45.00000000      45.30580384       1.52491791
      13.60000000      90.00000000      45.00000000      45.30585051       1.52491948
      13.70000000      90.00000000      45.00000000      45.30589719       1.52492105
      13.80000000      90.00000000      45.00000000      45.30594388       1.52492262
      13.90000000      90.00000000      45.00000000      45.30599057       1.52492419
      14.00000000      90.00000000      45.00000000      45.30603727       1.52492577
      14.10000000      90.00000000      45.00000000      45.30608397       1.52492734
      14.20000000      90.00000000      45.00000000      45.30613068       1.52492891
      14.30000000      90.00000000      45.00000000      45.30617739       1.52493048
      14.40000000      90.00000000      45.00000000      45.30622411       1.52493205
      14.50000000      90.00000000      45.00000000      45.30627084       1.52493363
      14.60000000      90.00000000      45.00000000      45.30631757       1.52493520
      14.70000000      90.00000000      45.00000000      45.30636431       1.52493677
      14.80000000      90.00000000      45.00000000      45.30641106       1.52493835
      14.90000000      90.00000000      45.00000000      45.30645781       1.52493992
      15.00000000      90.00000000      45.00000000      45.30650456       1.52494149
      15.10000000      90.00000000      45.00000000      45.30655133       1.52494307
      15.20000000      90.00000000      45.00000000      45.30659809       1.52494464
      15.30000000      90.00000000      45.00000000      45.30664487       1.52494622
      15.40000000      90.00000000      45.00000000      45.30669165       1.52494779
      15.50000000      90.00000000      45.00000000      45.30673843       1.52494937
      15.60000000      90.00000000      45.00000000      45.30678523       1.52495094
      15.70000000      90.00000000      45.00000000      45.30683203       1.52495252
      15.80000000      90.00000000      45.00000000      45.30687883       1.52495409
      15.90000000      90.00000000      45.00000000      45.30692564       1.52495567
      16.00000000      90.00000000      45.00000000      45.30697246       1.52495724
      16.10000000      90.00000000      45.00000000      45.30701928       1.52495882
      16.20000000      90.00000000      45.00000000      45.30706611       1.52496039
      16.30000000      90.00000000      45.00000000      45.30711294       1.52496197
      16.40000000      90.00000000      45.00000000      45.30715978       1.52496355
      16.50000000      90.00000000      45.00000000      45.30720663       1.52496512
      16.60000000      90.00000000      45.00000000      45.30725348       1.52496670
      16.70000000      90.00000000      45.00000000      45.30730034       1.52496828
      16.80000000      90.00000000      45.00000000      45.30734720       1.52496986
      16.90000000      90.00000000      45.00000000      45.30739407       1.52497143
      17.00000000      90.00000000      45.00000000      45.30744094       1.52497301
      17.10000000      90.00000000      45.00000000      45.30748783       1.52497459
      17.20000000      90.00000000      45.00000000      45.30753471       1.52497617
      17.30000000      90.00000000      45.00000000      45.30758161       1.52497775
      17.40000000      90.00000000      45.00000000      45.30762851       1.52497932
      17.50000000      90.00000000      45.00000000      45.30767541       1.52498090
      17.60000000      90.00000000      45.00000000      45.30772232       1.52498248
      17.70000000      90.00000000      45.00000000      45.30776924       1.52498406
      17.80000000      90.00000000      45.00000000      45.30781617       1.52498564
      17.90000000      90.00000000      45.00000000      45.30786310       1.52498722
      18.00000000      90.00000000      45.00000000      45.30791003       1.52498880
      18.10000000      90.00000000      45.00000000      45.30795697       1.52499038
      18.20000000      90.00000000      45.00000000      45.30800392       1.52499196
      18.30000000      90.00000000      45.00000000      45.30805087       1.52499354
      18.40000000      90.00000000      45.00000000      45.30809783       1.52499512
      18.50000000      90.00000000      45.00000000      45.30814480       1.52499670
      18.60000000      90.00000000      45.00000000      45.30819177       1.52499828
      18.70000000      90.00000000      45.00000000      45.30823875       1.52499986
      18.80000000      90.00000000      45.00000000      45.30828573       1.52500145
      18.90000000      90.00000000      45.00000000      45.30833272       1.52500303
      19.00000000      90.00000000      45.00000000      45.30837972       1.52500461
      19.10000000      90.00000000      45.00000000      45.30842672       1.52500619
      19.20000000      90.00000000      45.00000000      45.30847373       1.52500777
      19.30000000      90.00000000      45.00000000      45.30852074       1.52500936
      19.40000000      90.00000000      45.00000000      45.30856776       1.52501094
      19.50000000      90.00000000      45.00000000      45.30861478       1.52501252
      19.60000000      90.00000000      45.00000000      45.30866182       1.52501410
      19.70000000      90.00000000      45.00000000      45.30870885       1.52501569
      19.80000000      90.00000000      45.00000000      45.30875590       1.52501727
      19.90000000      90.00000000      45.00000000      45.30880295       1.52501885
      20.00000000      90.00000000      45.00000000      45.30885000       1.52502044
      20.10000000      90.00000000      45.00000000      45.30889706       1.52502202
      20.20000000      90.00000000      45.00000000      45.30894413       1.52502361
      20.30000000      90.00000000      45.00000000      45.30899120       1.52502519
      20.40000000      90.00000000      45.00000000      45.30903828       1.52502677
      20.50000000      90.00000000      45.00000000      45.30908537       1.52502836
      20.60000000      90.00000000      45.00000000      45.30913246       1.52502994
      20.70000000      90.00000000      45.00000000      45.30917956       1.52503153
      20.80000000      90.00000000      45.00000000      45.30922666       1.52503312
      20.90000000      90.00000000      45.00000000      45.30927377       1.52503470
      21.00000000      90.00000000      45.00000000      45.30932089       1.52503629
      21.10000000      90.00000000      45.00000000      45.30936801       1.52503787
      21.20000000      90.00000000      45.00000000      45.30941514       1.52503946
      21.30000000      90.00000000      45.00000000      45.30946227       1.52504105
      21.40000000      90.00000000      45.00000000      45.30950941       1.52504263
      21.50000000      90.00000000      45.00000000      45.30955655       1.52504422
      21.60000000      90.00000000      45.00000000      45.30960371       1.52504581
      21.70000000      90.00000000      45.00000000      45.30965086       1.52504739
      21.80000000      90.00000000      45.00000000      45.30969803       1.52504898
      21.90000000      90.00000000      45.00000000      45.30974520       1.52505057
      22.00000000      90.00000000      45.00000000      45.30979237       1.52505216
      22.10000000      90.00000000      45.00000000      45.30983956       1.52505374
      22.20000000      90.00000000      45.00000000      45.30988674       1.52505533
      22.30000000      90.00000000      45.00000000      45.30993394       1.52505692
      22.40000000      90.00000000      45.00000000      45.30998114       1.52505851
      22.50000000      90.00000000      45.00000000      45.31002834       1.52506010
      22.60000000      90.00000000      45.00000000      45.31007556       1.52506169
      22.70000000      90.00000000      45.00000000      45.31012277       1.52506328
      22.80000000      90.00000000      45.00000000      45.31017000       1.52506487
      22.90000000      90.00000000      45.00000000      45.31021723       1.52506646
      23.00000000      90.00000000      45.00000000      45.31026446       1.52506805
      23.10000000      90.00000000      45.00000000      45.31031171       1.52506964
      23.20000000      90.00000000      45.00000000      45.31035895       1.52507123
      23.30000000      90.00000000      45.00000000      45.31040621       1.52507282
      23.40000000      90.00000000      45.00000000      45.31045347       1.52507441
      23.50000000      90.00000000      45.00000000      45.31050073       1.52507600
      23.60000000      90.00000000      45.00000000      45.31054801       1.52507759
      23.70000000      90.00000000      45.00000000      45.31059529       1.52507918
      23.80000000      90.00000000      45.00000000      45.31064257       1.52508077
      23.90000000      90.00000000      45.00000000      45.31068986       1.52508236
      24.00000000      90.00000000      45.00000000      45.31073716       1.52508396
      24.10000000      90.00000000      45.00000000      45.31078446       1.52508555
      24.20000000      90.00000000      45.00000000      45.31083177       1.52508714
      24.30000000      90.00000000      45.00000000      45.31087908       1.52508873
      24.40000000      90.00000000      45.00000000      45.31092640       1.52509033
      24.50000000      90.00000000      45.00000000      45.31097373       1.52509192
      24.60000000      90.00000000      45.00000000      45.31102106       1.52509351
      24.70000000      90.00000000      45.00000000      45.31106840       1.52509511
      24.80000000      90.00000000      45.00000000      45.31111575       1.52509670
      24.90000000      90.00000000      45.00000000      45.31116310       1.52509829
      25.00000000      90.00000000      45.00000000      45.31121046       1.52509989
      25.10000000      90.00000000      45.00000000      45.31125782       1.52510148
      25.20000000      90.00000000      45.00000000      45.31130519       1.52510307
      25.30000000      90.00000000      45.00000000      45.31135256       1.52510467
      25.40000000      90.00000000      45.00000000      45.31139994       1.52510626
      25.50000000      90.00000000      45.00000000      45.31144733       1.52510786
      25.60000000      90.00000000      45.00000000      45.31149473       1.52510945
      25.70000000      90.00000000      45.00000000      45.31154213       1.52511105
      25.80000000      90.00000000      45.00000000      45.31158953       1.52511265
      25.90000000      90.00000000      45.00000000      45.31163694       1.52511424
      26.00000000      90.00000000      45.00000000      45.31168436       1.52511584
      26.10000000      90.00000000      45.00000000      45.31173178       1.52511743
      26.20000000      90.00000000      45.00000000      45.31177921       1.52511903
      26.30000000      90.00000000      45.00000000      45.31182665       1.52512063
      26.40000000      90.00000000      45.00000000      45.31187409       1.52512222
      26.50000000      90.00000000      45.00000000      45.31192154       1.52512382
      26.60000000      90.00000000      45.00000000      45.31196899       1.52512542
      26.70000000      90.00000000      45.00000000      45.31201645       1.52512702
      26.80000000      90.00000000      45.00000000      45.31206392       1.52512861
      26.90000000      90.00000000      45.00000000      45.31211139       1.52513021
      27.00000000      90.00000000      45.00000000      45.31215887       1.52513181
      27.10000000      90.00000000      45.00000000      45.31220636       1.52513341
      27.20000000      90.00000000      45.00000000      45.31225385       1.52513501
      27.30000000      90.00000000      45.00000000      45.31230134       1.52513660
      27.40000000      90.00000000      45.00000000      45.31234885       1.52513820
      27.50000000      90.00000000      45.00000000      45.31239636       1.52513980
      27.60000000      90.00000000      45.00000000      45.31244387       1.52514140
      27.70000000      90.00000000      45.00000000      45.31249139       1.52514300
      27.80000000      90.00000000      45.00000000      45.31253892       1.52514460
      27.90000000      90.00000000      45.00000000      45.31258645       1.52514620
      28.00000000      90.00000000      45.00000000      45.31263399       1.52514780
      28.10000000      90.00000000      45.00000000      45.31268154       1.52514940
      28.20000000      90.00000000      45.00000000      45.31272909       1.52515100
      28.30000000      90.00000000      45.00000000      45.31277665       1.52515260
      28.40000000      90.00000000      45.00000000      45.31282421       1.52515420
      28.50000000      90.00000000      45.00000000      45.31287178       1.52515580
      28.60000000      90.00000000      45.00000000      45.31291936       1.52515741
      28.70000000      90.00000000      45.00000000      45.31296694       1.52515901
      28.80000000      90.00000000      45.00000000      45.31301453       1.52516061
      28.90000000      90.00000000      45.00000000      45.31306212       1.52516221
      29.00000000      90.00000000      45.00000000      45.31310972       1.52516381
      29.10000000      90.00000000      45.00000000      45.31315733       1.52516541
      29.20000000      90.00000000      45.00000000      45.31320494       1.52516702
      29.30000000      90.00000000      45.00000000      45.31325256       1.52516862
      29.40000000      90.00000000      45.00000000      45.31330018       1.52517022
      29.50000000      90.00000000      45.00000000      45.31334781       1.52517183
      29.60000000      90.00000000      45.00000000      45.31339545       1.52517343
      29.70000000      90.00000000      45.00000000      45.31344309       1.52517503
      29.80000000      90.00000000      45.00000000      45.31349074       1.52517664
      29.90000000      90.00000000      45.00000000      45.31353840       1.52517824
      30.00000000      90.00000000      45.00000000      45.31358606       1.52517985
      30.10000000      90.00000000      45.00000000      45.31363373       1.52518145
      30.20000000      90.00000000      45.00000000      45.31368140       1.52518305
      30.30000000      90.00000000      45.00000000      45.31372908       1.52518466
      30.40000000      90.00000000      45.00000000      45.31377676       1.52518626
      30.50000000      90.00000000      45.00000000      45.31382446       1.52518787
      30.60000000      90.00000000      45.00000000      45.31387215       1.52518947
      30.70000000      90.00000000      45.00000000      45.31391986       1.52519108
      30.80000000      90.00000000      45.00000000      45.31396757       1.52519269
      30.90000000      90.00000000      45.00000000      45.31401529       1.52519429
      31.00000000      90.00000000      45.00000000      45.31406301       1.52519590
      31.10000000      90.00000000      45.00000000      45.31411074       1.52519751
      31.20000000      90.00000000      45.00000000      45.31415847       1.52519911
      31.30000000      90.00000000      45.00000000      45.31420621       1.52520072
      31.40000000      90.00000000      45.00000000      45.31425396       1.52520233
      31.50000000      90.00000000      45.00000000      45.31430171       1.52520393
      31.60000000      90.00000000      45.00000000      45.31434947       1.52520554
      31.70000000      90.00000000      45.00000000      45.31439724       1.52520715
      31.80000000      90.00000000      45.00000000      45.31444501       1.52520876
      31.90000000      90.00000000      45.00000000      45.31449279       1.52521036
      32.00000000      90.00000000      45.00000000      45.31454057       1.52521197
      32.10000000      90.00000000      45.00000000      45.31458836       1.52521358
      32.20000000      90.00000000      45.00000000      45.31463616       1.52521519
      32.30000000      90.00000000      45.00000000      45.31468396       1.52521680
      32.40000000      90.00000000      45.00000000      45.31473177       1.52521841
      32.50000000      90.00000000      45.00000000      45.31477958       1.52522002
      32.60000000      90.00000000      45.00000000      45.31482740       1.52522163
      32.70000000      90.00000000      45.00000000      45.31487523       1.52522324
      32.80000000      90.00000000      45.00000000      45.31492306       1.52522485
      32.90000000      90.00000000      45.00000000      45.31497090       1.52522646
      33.00000000      90.00000000      45.00000000      45.31501875       1.52522807
      33.10000000      90.00000000      45.00000000      45.31506660       1.52522968
      33.20000000      90.00000000      45.00000000      45.31511445       1.52523129
      33.30000000      90.00000000      45.00000000      45.31516232       1.52523290
      33.40000000      90.00000000      45.00000000      45.31521019       1.52523451
      33.50000000      90.00000000      45.00000000      45.31525806       1.52523612
      33.60000000      90.00000000      45.00000000      45.31530595       1.52523773
      33.70000000      90.00000000      45.00000000      45.31535383       1.52523935
      33.80000000      90.00000000      45.00000000      45.31540173       1.52524096
      33.90000000      90.00000000      45.00000000      45.31544963       1.52524257
      34.00000000      90.00000000      45.00000000      45.31549754       1.52524418
      34.10000000      90.00000000      45.00000000      45.31554545       1.52524580
      34.20000000      90.00000000      45.00000000      45.31559337       1.52524741
      34.30000000      90.00000000      45.00000000      45.31564129       1.52524902
      34.40000000      90.00000000      45.00000000      45.31568922       1.52525063
      34.50000000      90.00000000      45.00000000      45.31573716       1.52525225
      34.60000000      90.00000000      45.00000000      45.31578510       1.52525386
      34.70000000      90.00000000      45.00000000      45.31583305       1.52525548
      34.80000000      90.00000000      45.00000000      45.31588101       1.52525709
      34.90000000      90.00000000      45.00000000      45.31592897       1.52525870
      35.00000000      90.00000000      45.00000000      45.31597694       1.52526032
      35.10000000      90.00000000      45.00000000      45.31602492       1.52526193
      35.20000000      90.00000000      45.00000000      45.31607290       1.52526355
      35.30000000      90.00000000      45.00000000      45.31612088       1.52526516
      35.40000000      90.00000000      45.00000000      45.31616888       1.52526678
      35.50000000      90.00000000      45.00000000      45.31621687       1.52526839
      35.60000000      90.00000000      45.00000000      45.31626488       1.52527001
      35.70000000      90.00000000      45.00000000      45.31631289       1.52527163
      35.80000000      90.00000000      45.00000000      45.31636091       1.52527324
      35.90000000      90.00000000      45.00000000      45.31640893       1.52527486
      36.00000000      90.00000000      45.00000000      45.31645696       1.52527648
      36.10000000      90.00000000      45.00000000      45.31650500       1.52527809
      36.20000000      90.00000000      45.00000000      45.31655304       1.52527971
      36.30000000      90.00000000      45.00000000      45.31660109       1.52528133
      36.40000000      90.00000000      45.00000000      45.31664914       1.52528294
      36.50000000      90.00000000      45.00000000      45.31669721       1.52528456
      36.60000000      90.00000000      45.00000000      45.31674527       1.52528618
      36.70000000      90.00000000      45.00000000      45.31679335       1.52528780
      36.80000000      90.00000000      45.00000000      45.31684142       1.52528942
      36.90000000      90.00000000      45.00000000      45.31688951       1.52529103
      37.00000000      90.00000000      45.00000000      45.31693760       1.52529265
      37.10000000      90.00000000      45.00000000      45.31698570       1.52529427
      37.20000000      90.00000000      45.00000000      45.31703380       1.52529589
      37.30000000      90.00000000      45.00000000      45.31708191       1.52529751
      37.40000000      90.00000000      45.00000000      45.31713003       1.52529913
      37.50000000      90.00000000      45.00000000      45.31717815       1.52530075
      37.60000000      90.00000000      45.00000000      45.31722628       1.52530237
      37.70000000      90.00000000      45.00000000      45.31727442       1.52530399
      37.80000000      90.00000000      45.00000000      45.31732256       1.52530561
      37.90000000      90.00000000      45.00000000      45.31737071       1.52530723
      38.00000000      90.00000000      45.00000000      45.31741886       1.52530885
      38.10000000      90.00000000      45.00000000      45.31746702       1.52531047
      38.20000000      90.00000000      45.00000000      45.31751519       1.52531209
      38.30000000      90.00000000      45.00000000      45.31756336       1.52531371
      38.40000000      90.00000000      45.00000000      45.31761154       1.52531534
      38.50000000      90.00000000      45.00000000      45.31765972       1.52531696
      38.60000000      90.00000000      45.00000000      45.31770791       1.52531858
      38.70000000      90.00000000      45.00000000      45.31775611       1.52532020
      38.80000000      90.00000000      45.00000000      45.31780431       1.52532182
      38.90000000      90.00000000      45.00000000      45.31785252       1.52532345
      39.00000000      90.00000000      45.00000000      45.31790074       1.52532507
      39.10000000      90.00000000      45.00000000      45.31794896       1.52532669
      39.20000000      90.00000000      45.00000000      45.31799719       1.52532832
      39.30000000      90.00000000      45.00000000      45.31804542       1.52532994
      39.40000000      90.00000000      45.00000000      45.31809366       1.52533156
      39.50000000      90.00000000      45.00000000      45.31814191       1.52533319
      39.60000000      90.00000000      45.00000000      45.31819016       1.52533481
      39.70000000      90.00000000      45.00000000      45.31823842       1.52533644
      39.80000000      90.00000000      45.00000000      45.31828669       1.52533806
      39.90000000      90.00000000      45.00000000      45.31833496       1.52533969
      40.00000000      90.00000000      45.00000000      45.31838324       1.52534131
