 # applied field (T), theta (degree), phi (degree), abs for RE 3-4
     0.00000   179.68529   315.00000     3.55240   179.68529   225.00000     3.55240
     0.10000   178.94432   242.36090     3.55261   178.63754   225.00000     3.55267
     0.20000   177.96009   233.89066     3.55269   177.58987   225.00000     3.55285
     0.30000   176.96000   230.95692     3.55261   176.54220   225.00000     3.55296
     0.40000   175.95539   229.47646     3.55240   175.49440   225.00000     3.55300
     0.50000   174.89545   228.54728     3.55200   174.39118   225.00000     3.55296
     0.60000   173.88694   227.96238     3.55146   173.34282   225.00000     3.55285
     0.70000   172.87711   227.54245     3.55075   172.29403   225.00000     3.55267
     0.80000   171.81271   227.21166     3.54982   171.18944   225.00000     3.55241
     0.90000   170.74689   226.95634     3.54870   170.08418   225.00000     3.55208
     1.00000   169.73301   226.76235     3.54744   169.03348   225.00000     3.55170
     1.10000   168.66423   226.59508     3.54591   167.92660   225.00000     3.55123
     1.20000   167.54022   226.44978     3.54407   166.76332   225.00000     3.55067
     1.30000   166.46801   226.33333     3.54208   165.65438   225.00000     3.55008
     1.40000   165.34021   226.22889     3.53975   164.48876   225.00000     3.54940
     1.50000   164.21034   226.13888     3.53716   163.32182   225.00000     3.54866
     1.60000   163.07829   226.06042     3.53431   162.15349   225.00000     3.54786
     1.70000   161.88987   225.98826     3.53102   160.92794   225.00000     3.54698
     1.80000   160.69886   225.92452     3.52743   159.70073   225.00000     3.54604
     1.90000   159.45079   225.86531     3.52334   158.41589   225.00000     3.54502
     2.00000   158.19966   225.81240     3.51891   157.12913   225.00000     3.54396
     2.10000   156.89071   225.76282     3.51391   155.78432   225.00000     3.54281
     2.20000   155.57816   225.71808     3.50854   154.43736   225.00000     3.54163
     2.30000   154.20692   225.67584     3.50253   153.03195   225.00000     3.54037
     2.40000   152.83146   225.63738     3.49612   151.62421   225.00000     3.53910
     2.50000   151.34100   225.59948     3.48876   150.10119   225.00000     3.53771
     2.60000   149.78971   225.56359     3.48064   148.51894   225.00000     3.53626
     2.70000   148.23248   225.53067     3.47205   146.93389   225.00000     3.53481
     2.80000   146.55714   225.49824     3.46238   145.23259   225.00000     3.53327
     2.90000   144.76197   225.46644     3.45156   143.41457   225.00000     3.53165
     3.00000   142.90160   225.43622     3.43993   141.53637   225.00000     3.53001
     3.10000   140.86118   225.40584     3.42680   139.48378   225.00000     3.52828
     3.20000   138.69472   225.37626     3.41255   137.31340   225.00000     3.52652
     3.30000   136.34230   225.34682     3.39692   134.96777   225.00000     3.52471
     3.40000   133.74241   225.31701     3.37968   132.38924   225.00000     3.52283
     3.50000   130.83181   225.28649     3.36078   129.51999   225.00000     3.52087
     3.60000   127.42775   225.25398     3.33965   126.18715   225.00000     3.51878
     3.70000   123.34213   225.21859     3.31633   122.21743   225.00000     3.51651
     3.80000   118.20250   225.17845     3.29105   117.26434   225.00000     3.51391
     3.90000   110.84220   225.12701     3.26415   110.22993   225.00000     3.51044
     4.00000    90.00000   225.00000     3.25160    90.42830   225.00000     3.49971
     4.10000    90.00000   225.00000     3.25161    90.42833   225.00000     3.49970
     4.20000    90.00000   225.00000     3.25163    90.42836   225.00000     3.49969
     4.30000    90.00000   225.00000     3.25164    90.42839   225.00000     3.49969
     4.40000    90.00000   225.00000     3.25165    90.42841   225.00000     3.49968
     4.50000    90.00000   225.00000     3.25166    90.42844   225.00000     3.49967
     4.60000    90.00000   225.00000     3.25167    90.42847   225.00000     3.49966
     4.70000    90.00000   225.00000     3.25169    90.42850   225.00000     3.49966
     4.80000    90.00000   225.00000     3.25170    90.42853   225.00000     3.49965
     4.90000    90.00000   225.00000     3.25171    90.42856   225.00000     3.49964
     5.00000    90.00000   225.00000     3.25172    90.42859   225.00000     3.49963
     5.10000    90.00000   225.00000     3.25173    90.42862   225.00000     3.49962
     5.20000    90.00000   225.00000     3.25175    90.42865   225.00000     3.49961
     5.30000    90.00000   225.00000     3.25176    90.42868   225.00000     3.49961
     5.40000    90.00000   225.00000     3.25177    90.42870   225.00000     3.49960
     5.50000    90.00000   225.00000     3.25178    90.42873   225.00000     3.49959
     5.60000    90.00000   225.00000     3.25179    90.42876   225.00000     3.49958
     5.70000    90.00000   225.00000     3.25181    90.42879   225.00000     3.49957
     5.80000    90.00000   225.00000     3.25182    90.42882   225.00000     3.49957
     5.90000    90.00000   225.00000     3.25183    90.42885   225.00000     3.49956
     6.00000    90.00000   225.00000     3.25184    90.42888   225.00000     3.49955
     6.10000    90.00000   225.00000     3.25185    90.42891   225.00000     3.49954
     6.20000    90.00000   225.00000     3.25187    90.42894   225.00000     3.49953
     6.30000    90.00000   225.00000     3.25188    90.42896   225.00000     3.49952
     6.40000    90.00000   225.00000     3.25189    90.42899   225.00000     3.49952
     6.50000    90.00000   225.00000     3.25190    90.42902   225.00000     3.49951
     6.60000    90.00000   225.00000     3.25191    90.42905   225.00000     3.49950
     6.70000    90.00000   225.00000     3.25192    90.42908   225.00000     3.49949
     6.80000    90.00000   225.00000     3.25194    90.42911   225.00000     3.49948
     6.90000    90.00000   225.00000     3.25195    90.42914   225.00000     3.49947
     7.00000    90.00000   225.00000     3.25196    90.42917   225.00000     3.49947
     7.10000    90.00000   225.00000     3.25197    90.42920   225.00000     3.49946
     7.20000    90.00000   225.00000     3.25198    90.42923   225.00000     3.49945
     7.30000    90.00000   225.00000     3.25199    90.42925   225.00000     3.49944
     7.40000    90.00000   225.00000     3.25201    90.42928   225.00000     3.49943
     7.50000    90.00000   225.00000     3.25202    90.42931   225.00000     3.49942
     7.60000    90.00000   225.00000     3.25203    90.42934   225.00000     3.49941
     7.70000    90.00000   225.00000     3.25204    90.42937   225.00000     3.49941
     7.80000    90.00000   225.00000     3.25205    90.42940   225.00000     3.49940
     7.90000    90.00000   225.00000     3.25206    90.42943   225.00000     3.49939
     8.00000    90.00000   225.00000     3.25207    90.42946   225.00000     3.49938
     8.10000    90.00000   225.00000     3.25209    90.42949   225.00000     3.49937
     8.20000    90.00000   225.00000     3.25210    90.42951   225.00000     3.49936
     8.30000    90.00000   225.00000     3.25211    90.42954   225.00000     3.49935
     8.40000    90.00000   225.00000     3.25212    90.42957   225.00000     3.49935
     8.50000    90.00000   225.00000     3.25213    90.42960   225.00000     3.49934
     8.60000    90.00000   225.00000     3.25214    90.42963   225.00000     3.49933
     8.70000    90.00000   225.00000     3.25215    90.42966   225.00000     3.49932
     8.80000    90.00000   225.00000     3.25217    90.42969   225.00000     3.49931
     8.90000    90.00000   225.00000     3.25218    90.42972   225.00000     3.49930
     9.00000    90.00000   225.00000     3.25219    90.42975   225.00000     3.49929
     9.10000    90.00000   225.00000     3.25220    90.42978   225.00000     3.49928
     9.20000    90.00000   225.00000     3.25221    90.42980   225.00000     3.49927
     9.30000    90.00000   225.00000     3.25222    90.42983   225.00000     3.49927
     9.40000    90.00000   225.00000     3.25223    90.42986   225.00000     3.49926
     9.50000    90.00000   225.00000     3.25224    90.42989   225.00000     3.49925
     9.60000    90.00000   225.00000     3.25225    90.42992   225.00000     3.49924
     9.70000    90.00000   225.00000     3.25227    90.42995   225.00000     3.49923
     9.80000    90.00000   225.00000     3.25228    90.42998   225.00000     3.49922
     9.90000    90.00000   225.00000     3.25229    90.43001   225.00000     3.49921
    10.00000    90.00000   225.00000     3.25230    90.43004   225.00000     3.49920
    10.10000    90.00000   225.00000     3.25231    90.43006   225.00000     3.49919
    10.20000    90.00000   225.00000     3.25232    90.43009   225.00000     3.49918
    10.30000    90.00000   225.00000     3.25233    90.43012   225.00000     3.49918
    10.40000    90.00000   225.00000     3.25234    90.43015   225.00000     3.49917
    10.50000    90.00000   225.00000     3.25235    90.43018   225.00000     3.49916
    10.60000    90.00000   225.00000     3.25236    90.43021   225.00000     3.49915
    10.70000    90.00000   225.00000     3.25237    90.43024   225.00000     3.49914
    10.80000    90.00000   225.00000     3.25238    90.43027   225.00000     3.49913
    10.90000    90.00000   225.00000     3.25240    90.43030   225.00000     3.49912
    11.00000    90.00000   225.00000     3.25241    90.43033   225.00000     3.49911
    11.10000    90.00000   225.00000     3.25242    90.43035   225.00000     3.49910
    11.20000    90.00000   225.00000     3.25243    90.43038   225.00000     3.49909
    11.30000    90.00000   225.00000     3.25244    90.43041   225.00000     3.49908
    11.40000    90.00000   225.00000     3.25245    90.43044   225.00000     3.49907
    11.50000    90.00000   225.00000     3.25246    90.43047   225.00000     3.49906
    11.60000    90.00000   225.00000     3.25247    90.43050   225.00000     3.49906
    11.70000    90.00000   225.00000     3.25248    90.43053   225.00000     3.49905
    11.80000    90.00000   225.00000     3.25249    90.43056   225.00000     3.49904
    11.90000    90.00000   225.00000     3.25250    90.43059   225.00000     3.49903
    12.00000    90.00000   225.00000     3.25251    90.43061   225.00000     3.49902
    12.10000    90.00000   225.00000     3.25252    90.43064   225.00000     3.49901
    12.20000    90.00000   225.00000     3.25253    90.43067   225.00000     3.49900
    12.30000    90.00000   225.00000     3.25254    90.43070   225.00000     3.49899
    12.40000    90.00000   225.00000     3.25255    90.43073   225.00000     3.49898
    12.50000    90.00000   225.00000     3.25256    90.43076   225.00000     3.49897
    12.60000    90.00000   225.00000     3.25257    90.43079   225.00000     3.49896
    12.70000    90.00000   225.00000     3.25258    90.43082   225.00000     3.49895
    12.80000    90.00000   225.00000     3.25259    90.43085   225.00000     3.49894
    12.90000    90.00000   225.00000     3.25261    90.43088   225.00000     3.49893
    13.00000    90.00000   225.00000     3.25262    90.43090   225.00000     3.49892
    13.10000    90.00000   225.00000     3.25263    90.43093   225.00000     3.49891
    13.20000    90.00000   225.00000     3.25264    90.43096   225.00000     3.49890
    13.30000    90.00000   225.00000     3.25265    90.43099   225.00000     3.49889
    13.40000    90.00000   225.00000     3.25266    90.43102   225.00000     3.49888
    13.50000    90.00000   225.00000     3.25267    90.43105   225.00000     3.49887
    13.60000    90.00000   225.00000     3.25268    90.43108   225.00000     3.49886
    13.70000    90.00000   225.00000     3.25269    90.43111   225.00000     3.49885
    13.80000    90.00000   225.00000     3.25270    90.43114   225.00000     3.49884
    13.90000    90.00000   225.00000     3.25271    90.43116   225.00000     3.49883
    14.00000    90.00000   225.00000     3.25272    90.43119   225.00000     3.49882
    14.10000    90.00000   225.00000     3.25273    90.43122   225.00000     3.49881
    14.20000    90.00000   225.00000     3.25274    90.43125   225.00000     3.49880
    14.30000    90.00000   225.00000     3.25275    90.43128   225.00000     3.49879
    14.40000    90.00000   225.00000     3.25276    90.43131   225.00000     3.49878
    14.50000    90.00000   225.00000     3.25277    90.43134   225.00000     3.49877
    14.60000    90.00000   225.00000     3.25278    90.43137   225.00000     3.49876
    14.70000    90.00000   225.00000     3.25279    90.43140   225.00000     3.49875
    14.80000    90.00000   225.00000     3.25280    90.43142   225.00000     3.49874
    14.90000    90.00000   225.00000     3.25281    90.43145   225.00000     3.49873
    15.00000    90.00000   225.00000     3.25282    90.43148   225.00000     3.49872
    15.10000    90.00000   225.00000     3.25283    90.43151   225.00000     3.49871
    15.20000    90.00000   225.00000     3.25284    90.43154   225.00000     3.49870
    15.30000    90.00000   225.00000     3.25284    90.43157   225.00000     3.49869
    15.40000    90.00000   225.00000     3.25285    90.43160   225.00000     3.49868
    15.50000    90.00000   225.00000     3.25286    90.43163   225.00000     3.49867
    15.60000    90.00000   225.00000     3.25287    90.43166   225.00000     3.49866
    15.70000    90.00000   225.00000     3.25288    90.43168   225.00000     3.49865
    15.80000    90.00000   225.00000     3.25289    90.43171   225.00000     3.49864
    15.90000    90.00000   225.00000     3.25290    90.43174   225.00000     3.49863
    16.00000    90.00000   225.00000     3.25291    90.43177   225.00000     3.49862
    16.10000    90.00000   225.00000     3.25292    90.43180   225.00000     3.49861
    16.20000    90.00000   225.00000     3.25293    90.43183   225.00000     3.49860
    16.30000    90.00000   225.00000     3.25294    90.43186   225.00000     3.49859
    16.40000    90.00000   225.00000     3.25295    90.43189   225.00000     3.49858
    16.50000    90.00000   225.00000     3.25296    90.43192   225.00000     3.49857
    16.60000    90.00000   225.00000     3.25297    90.43195   225.00000     3.49856
    16.70000    90.00000   225.00000     3.25298    90.43197   225.00000     3.49855
    16.80000    90.00000   225.00000     3.25299    90.43200   225.00000     3.49854
    16.90000    90.00000   225.00000     3.25300    90.43203   225.00000     3.49853
    17.00000    90.00000   225.00000     3.25301    90.43206   225.00000     3.49852
    17.10000    90.00000   225.00000     3.25302    90.43209   225.00000     3.49851
    17.20000    90.00000   225.00000     3.25303    90.43212   225.00000     3.49850
    17.30000    90.00000   225.00000     3.25303    90.43215   225.00000     3.49849
    17.40000    90.00000   225.00000     3.25304    90.43218   225.00000     3.49848
    17.50000    90.00000   225.00000     3.25305    90.43221   225.00000     3.49847
    17.60000    90.00000   225.00000     3.25306    90.43223   225.00000     3.49846
    17.70000    90.00000   225.00000     3.25307    90.43226   225.00000     3.49844
    17.80000    90.00000   225.00000     3.25308    90.43229   225.00000     3.49843
    17.90000    90.00000   225.00000     3.25309    90.43232   225.00000     3.49842
    18.00000    90.00000   225.00000     3.25310    90.43235   225.00000     3.49841
    18.10000    90.00000   225.00000     3.25311    90.43238   225.00000     3.49840
    18.20000    90.00000   225.00000     3.25312    90.43241   225.00000     3.49839
    18.30000    90.00000   225.00000     3.25313    90.43244   225.00000     3.49838
    18.40000    90.00000   225.00000     3.25313    90.43247   225.00000     3.49837
    18.50000    90.00000   225.00000     3.25314    90.43249   225.00000     3.49836
    18.60000    90.00000   225.00000     3.25315    90.43252   225.00000     3.49835
    18.70000    90.00000   225.00000     3.25316    90.43255   225.00000     3.49834
    18.80000    90.00000   225.00000     3.25317    90.43258   225.00000     3.49833
    18.90000    90.00000   225.00000     3.25318    90.43261   225.00000     3.49832
    19.00000    90.00000   225.00000     3.25319    90.43264   225.00000     3.49830
    19.10000    90.00000   225.00000     3.25320    90.43267   225.00000     3.49829
    19.20000    90.00000   225.00000     3.25321    90.43270   225.00000     3.49828
    19.30000    90.00000   225.00000     3.25321    90.43273   225.00000     3.49827
    19.40000    90.00000   225.00000     3.25322    90.43275   225.00000     3.49826
    19.50000    90.00000   225.00000     3.25323    90.43278   225.00000     3.49825
    19.60000    90.00000   225.00000     3.25324    90.43281   225.00000     3.49824
    19.70000    90.00000   225.00000     3.25325    90.43284   225.00000     3.49823
    19.80000    90.00000   225.00000     3.25326    90.43287   225.00000     3.49822
    19.90000    90.00000   225.00000     3.25327    90.43290   225.00000     3.49821
    20.00000    90.00000   225.00000     3.25328    90.43293   225.00000     3.49819
    20.10000    90.00000   225.00000     3.25328    90.43296   225.00000     3.49818
    20.20000    90.00000   225.00000     3.25329    90.43299   225.00000     3.49817
    20.30000    90.00000   225.00000     3.25330    90.43302   225.00000     3.49816
    20.40000    90.00000   225.00000     3.25331    90.43304   225.00000     3.49815
    20.50000    90.00000   225.00000     3.25332    90.43307   225.00000     3.49814
    20.60000    90.00000   225.00000     3.25333    90.43310   225.00000     3.49813
    20.70000    90.00000   225.00000     3.25334    90.43313   225.00000     3.49812
    20.80000    90.00000   225.00000     3.25334    90.43316   225.00000     3.49810
    20.90000    90.00000   225.00000     3.25335    90.43319   225.00000     3.49809
    21.00000    90.00000   225.00000     3.25336    90.43322   225.00000     3.49808
    21.10000    90.00000   225.00000     3.25337    90.43325   225.00000     3.49807
    21.20000    90.00000   225.00000     3.25338    90.43328   225.00000     3.49806
    21.30000    90.00000   225.00000     3.25339    90.43330   225.00000     3.49805
    21.40000    90.00000   225.00000     3.25339    90.43333   225.00000     3.49804
    21.50000    90.00000   225.00000     3.25340    90.43336   225.00000     3.49803
    21.60000    90.00000   225.00000     3.25341    90.43339   225.00000     3.49801
    21.70000    90.00000   225.00000     3.25342    90.43342   225.00000     3.49800
    21.80000    90.00000   225.00000     3.25343    90.43345   225.00000     3.49799
    21.90000    90.00000   225.00000     3.25344    90.43348   225.00000     3.49798
    22.00000    90.00000   225.00000     3.25344    90.43351   225.00000     3.49797
    22.10000    90.00000   225.00000     3.25345    90.43354   225.00000     3.49796
    22.20000    90.00000   225.00000     3.25346    90.43356   225.00000     3.49794
    22.30000    90.00000   225.00000     3.25347    90.43359   225.00000     3.49793
    22.40000    90.00000   225.00000     3.25348    90.43362   225.00000     3.49792
    22.50000    90.00000   225.00000     3.25348    90.43365   225.00000     3.49791
    22.60000    90.00000   225.00000     3.25349    90.43368   225.00000     3.49790
    22.70000    90.00000   225.00000     3.25350    90.43371   225.00000     3.49789
    22.80000    90.00000   225.00000     3.25351    90.43374   225.00000     3.49788
    22.90000    90.00000   225.00000     3.25352    90.43377   225.00000     3.49786
    23.00000    90.00000   225.00000     3.25352    90.43380   225.00000     3.49785
    23.10000    90.00000   225.00000     3.25353    90.43382   225.00000     3.49784
    23.20000    90.00000   225.00000     3.25354    90.43385   225.00000     3.49783
    23.30000    90.00000   225.00000     3.25355    90.43388   225.00000     3.49782
    23.40000    90.00000   225.00000     3.25356    90.43391   225.00000     3.49780
    23.50000    90.00000   225.00000     3.25356    90.43394   225.00000     3.49779
    23.60000    90.00000   225.00000     3.25357    90.43397   225.00000     3.49778
    23.70000    90.00000   225.00000     3.25358    90.43400   225.00000     3.49777
    23.80000    90.00000   225.00000     3.25359    90.43403   225.00000     3.49776
    23.90000    90.00000   225.00000     3.25360    90.43406   225.00000     3.49775
    24.00000    90.00000   225.00000     3.25360    90.43408   225.00000     3.49773
    24.10000    90.00000   225.00000     3.25361    90.43411   225.00000     3.49772
    24.20000    90.00000   225.00000     3.25362    90.43414   225.00000     3.49771
    24.30000    90.00000   225.00000     3.25363    90.43417   225.00000     3.49770
    24.40000    90.00000   225.00000     3.25363    90.43420   225.00000     3.49769
    24.50000    90.00000   225.00000     3.25364    90.43423   225.00000     3.49767
    24.60000    90.00000   225.00000     3.25365    90.43426   225.00000     3.49766
    24.70000    90.00000   225.00000     3.25366    90.43429   225.00000     3.49765
    24.80000    90.00000   225.00000     3.25366    90.43432   225.00000     3.49764
    24.90000    90.00000   225.00000     3.25367    90.43434   225.00000     3.49763
    25.00000    90.00000   225.00000     3.25368    90.43437   225.00000     3.49761
    25.10000    90.00000   225.00000     3.25369    90.43440   225.00000     3.49760
    25.20000    90.00000   225.00000     3.25369    90.43443   225.00000     3.49759
    25.30000    90.00000   225.00000     3.25370    90.43446   225.00000     3.49758
    25.40000    90.00000   225.00000     3.25371    90.43449   225.00000     3.49756
    25.50000    90.00000   225.00000     3.25372    90.43452   225.00000     3.49755
    25.60000    90.00000   225.00000     3.25372    90.43455   225.00000     3.49754
    25.70000    90.00000   225.00000     3.25373    90.43458   225.00000     3.49753
    25.80000    90.00000   225.00000     3.25374    90.43460   225.00000     3.49752
    25.90000    90.00000   225.00000     3.25375    90.43463   225.00000     3.49750
    26.00000    90.00000   225.00000     3.25375    90.43466   225.00000     3.49749
    26.10000    90.00000   225.00000     3.25376    90.43469   225.00000     3.49748
    26.20000    90.00000   225.00000     3.25377    90.43472   225.00000     3.49747
    26.30000    90.00000   225.00000     3.25377    90.43475   225.00000     3.49745
    26.40000    90.00000   225.00000     3.25378    90.43478   225.00000     3.49744
    26.50000    90.00000   225.00000     3.25379    90.43481   225.00000     3.49743
    26.60000    90.00000   225.00000     3.25380    90.43484   225.00000     3.49742
    26.70000    90.00000   225.00000     3.25380    90.43486   225.00000     3.49740
    26.80000    90.00000   225.00000     3.25381    90.43489   225.00000     3.49739
    26.90000    90.00000   225.00000     3.25382    90.43492   225.00000     3.49738
    27.00000    90.00000   225.00000     3.25382    90.43495   225.00000     3.49737
    27.10000    90.00000   225.00000     3.25383    90.43498   225.00000     3.49735
    27.20000    90.00000   225.00000     3.25384    90.43501   225.00000     3.49734
    27.30000    90.00000   225.00000     3.25385    90.43504   225.00000     3.49733
    27.40000    90.00000   225.00000     3.25385    90.43507   225.00000     3.49732
    27.50000    90.00000   225.00000     3.25386    90.43510   225.00000     3.49730
    27.60000    90.00000   225.00000     3.25387    90.43512   225.00000     3.49729
    27.70000    90.00000   225.00000     3.25387    90.43515   225.00000     3.49728
    27.80000    90.00000   225.00000     3.25388    90.43518   225.00000     3.49727
    27.90000    90.00000   225.00000     3.25389    90.43521   225.00000     3.49725
    28.00000    90.00000   225.00000     3.25389    90.43524   225.00000     3.49724
    28.10000    90.00000   225.00000     3.25390    90.43527   225.00000     3.49723
    28.20000    90.00000   225.00000     3.25391    90.43530   225.00000     3.49721
    28.30000    90.00000   225.00000     3.25391    90.43533   225.00000     3.49720
    28.40000    90.00000   225.00000     3.25392    90.43536   225.00000     3.49719
    28.50000    90.00000   225.00000     3.25393    90.43538   225.00000     3.49718
    28.60000    90.00000   225.00000     3.25393    90.43541   225.00000     3.49716
    28.70000    90.00000   225.00000     3.25394    90.43544   225.00000     3.49715
    28.80000    90.00000   225.00000     3.25395    90.43547   225.00000     3.49714
    28.90000    90.00000   225.00000     3.25395    90.43550   225.00000     3.49712
    29.00000    90.00000   225.00000     3.25396    90.43553   225.00000     3.49711
    29.10000    90.00000   225.00000     3.25397    90.43556   225.00000     3.49710
    29.20000    90.00000   225.00000     3.25397    90.43559   225.00000     3.49709
    29.30000    90.00000   225.00000     3.25398    90.43562   225.00000     3.49707
    29.40000    90.00000   225.00000     3.25399    90.43564   225.00000     3.49706
    29.50000    90.00000   225.00000     3.25399    90.43567   225.00000     3.49705
    29.60000    90.00000   225.00000     3.25400    90.43570   225.00000     3.49703
    29.70000    90.00000   225.00000     3.25401    90.43573   225.00000     3.49702
    29.80000    90.00000   225.00000     3.25401    90.43576   225.00000     3.49701
    29.90000    90.00000   225.00000     3.25402    90.43579   225.00000     3.49699
    30.00000    90.00000   225.00000     3.25403    90.43582   225.00000     3.49698
    30.10000    90.00000   225.00000     3.25403    90.43585   225.00000     3.49697
    30.20000    90.00000   225.00000     3.25404    90.43588   225.00000     3.49695
    30.30000    90.00000   225.00000     3.25404    90.43591   225.00000     3.49694
    30.40000    90.00000   225.00000     3.25405    90.43593   225.00000     3.49693
    30.50000    90.00000   225.00000     3.25406    90.43596   225.00000     3.49692
    30.60000    90.00000   225.00000     3.25406    90.43599   225.00000     3.49690
    30.70000    90.00000   225.00000     3.25407    90.43602   225.00000     3.49689
    30.80000    90.00000   225.00000     3.25408    90.43605   225.00000     3.49688
    30.90000    90.00000   225.00000     3.25408    90.43608   225.00000     3.49686
    31.00000    90.00000   225.00000     3.25409    90.43611   225.00000     3.49685
    31.10000    90.00000   225.00000     3.25409    90.43614   225.00000     3.49684
    31.20000    90.00000   225.00000     3.25410    90.43617   225.00000     3.49682
    31.30000    90.00000   225.00000     3.25411    90.43619   225.00000     3.49681
    31.40000    90.00000   225.00000     3.25411    90.43622   225.00000     3.49680
    31.50000    90.00000   225.00000     3.25412    90.43625   225.00000     3.49678
    31.60000    90.00000   225.00000     3.25412    90.43628   225.00000     3.49677
    31.70000    90.00000   225.00000     3.25413    90.43631   225.00000     3.49675
    31.80000    90.00000   225.00000     3.25414    90.43634   225.00000     3.49674
    31.90000    90.00000   225.00000     3.25414    90.43637   225.00000     3.49673
    32.00000    90.00000   225.00000     3.25415    90.43640   225.00000     3.49671
    32.10000    90.00000   225.00000     3.25415    90.43643   225.00000     3.49670
    32.20000    90.00000   225.00000     3.25416    90.43645   225.00000     3.49669
    32.30000    90.00000   225.00000     3.25417    90.43648   225.00000     3.49667
    32.40000    90.00000   225.00000     3.25417    90.43651   225.00000     3.49666
    32.50000    90.00000   225.00000     3.25418    90.43654   225.00000     3.49665
    32.60000    90.00000   225.00000     3.25418    90.43657   225.00000     3.49663
    32.70000    90.00000   225.00000     3.25419    90.43660   225.00000     3.49662
    32.80000    90.00000   225.00000     3.25419    90.43663   225.00000     3.49660
    32.90000    90.00000   225.00000     3.25420    90.43666   225.00000     3.49659
    33.00000    90.00000   225.00000     3.25421    90.43669   225.00000     3.49658
    33.10000    90.00000   225.00000     3.25421    90.43671   225.00000     3.49656
    33.20000    90.00000   225.00000     3.25422    90.43674   225.00000     3.49655
    33.30000    90.00000   225.00000     3.25422    90.43677   225.00000     3.49654
    33.40000    90.00000   225.00000     3.25423    90.43680   225.00000     3.49652
    33.50000    90.00000   225.00000     3.25423    90.43683   225.00000     3.49651
    33.60000    90.00000   225.00000     3.25424    90.43686   225.00000     3.49649
    33.70000    90.00000   225.00000     3.25424    90.43689   225.00000     3.49648
    33.80000    90.00000   225.00000     3.25425    90.43692   225.00000     3.49647
    33.90000    90.00000   225.00000     3.25426    90.43694   225.00000     3.49645
    34.00000    90.00000   225.00000     3.25426    90.43697   225.00000     3.49644
    34.10000    90.00000   225.00000     3.25427    90.43700   225.00000     3.49642
    34.20000    90.00000   225.00000     3.25427    90.43703   225.00000     3.49641
    34.30000    90.00000   225.00000     3.25428    90.43706   225.00000     3.49640
    34.40000    90.00000   225.00000     3.25428    90.43709   225.00000     3.49638
    34.50000    90.00000   225.00000     3.25429    90.43712   225.00000     3.49637
    34.60000    90.00000   225.00000     3.25429    90.43715   225.00000     3.49635
    34.70000    90.00000   225.00000     3.25430    90.43718   225.00000     3.49634
    34.80000    90.00000   225.00000     3.25430    90.43720   225.00000     3.49633
    34.90000    90.00000   225.00000     3.25431    90.43723   225.00000     3.49631
    35.00000    90.00000   225.00000     3.25431    90.43726   225.00000     3.49630
    35.10000    90.00000   225.00000     3.25432    90.43729   225.00000     3.49628
    35.20000    90.00000   225.00000     3.25432    90.43732   225.00000     3.49627
    35.30000    90.00000   225.00000     3.25433    90.43735   225.00000     3.49626
    35.40000    90.00000   225.00000     3.25434    90.43738   225.00000     3.49624
    35.50000    90.00000   225.00000     3.25434    90.43741   225.00000     3.49623
    35.60000    90.00000   225.00000     3.25435    90.43744   225.00000     3.49621
    35.70000    90.00000   225.00000     3.25435    90.43746   225.00000     3.49620
    35.80000    90.00000   225.00000     3.25436    90.43749   225.00000     3.49618
    35.90000    90.00000   225.00000     3.25436    90.43752   225.00000     3.49617
    36.00000    90.00000   225.00000     3.25437    90.43755   225.00000     3.49616
    36.10000    90.00000   225.00000     3.25437    90.43758   225.00000     3.49614
    36.20000    90.00000   225.00000     3.25438    90.43761   225.00000     3.49613
    36.30000    90.00000   225.00000     3.25438    90.43764   225.00000     3.49611
    36.40000    90.00000   225.00000     3.25439    90.43767   225.00000     3.49610
    36.50000    90.00000   225.00000     3.25439    90.43770   225.00000     3.49608
    36.60000    90.00000   225.00000     3.25440    90.43772   225.00000     3.49607
    36.70000    90.00000   225.00000     3.25440    90.43775   225.00000     3.49605
    36.80000    90.00000   225.00000     3.25440    90.43778   225.00000     3.49604
    36.90000    90.00000   225.00000     3.25441    90.43781   225.00000     3.49602
    37.00000    90.00000   225.00000     3.25441    90.43784   225.00000     3.49601
    37.10000    90.00000   225.00000     3.25442    90.43787   225.00000     3.49600
    37.20000    90.00000   225.00000     3.25442    90.43790   225.00000     3.49598
    37.30000    90.00000   225.00000     3.25443    90.43793   225.00000     3.49597
    37.40000    90.00000   225.00000     3.25443    90.43796   225.00000     3.49595
    37.50000    90.00000   225.00000     3.25444    90.43798   225.00000     3.49594
    37.60000    90.00000   225.00000     3.25444    90.43801   225.00000     3.49592
    37.70000    90.00000   225.00000     3.25445    90.43804   225.00000     3.49591
    37.80000    90.00000   225.00000     3.25445    90.43807   225.00000     3.49589
    37.90000    90.00000   225.00000     3.25446    90.43810   225.00000     3.49588
    38.00000    90.00000   225.00000     3.25446    90.43813   225.00000     3.49586
    38.10000    90.00000   225.00000     3.25447    90.43816   225.00000     3.49585
    38.20000    90.00000   225.00000     3.25447    90.43819   225.00000     3.49583
    38.30000    90.00000   225.00000     3.25447    90.43822   225.00000     3.49582
    38.40000    90.00000   225.00000     3.25448    90.43824   225.00000     3.49580
    38.50000    90.00000   225.00000     3.25448    90.43827   225.00000     3.49579
    38.60000    90.00000   225.00000     3.25449    90.43830   225.00000     3.49577
    38.70000    90.00000   225.00000     3.25449    90.43833   225.00000     3.49576
    38.80000    90.00000   225.00000     3.25450    90.43836   225.00000     3.49574
    38.90000    90.00000   225.00000     3.25450    90.43839   225.00000     3.49573
    39.00000    90.00000   225.00000     3.25450    90.43842   225.00000     3.49571
    39.10000    90.00000   225.00000     3.25451    90.43845   225.00000     3.49570
    39.20000    90.00000   225.00000     3.25451    90.43848   225.00000     3.49568
    39.30000    90.00000   225.00000     3.25452    90.43850   225.00000     3.49567
    39.40000    90.00000   225.00000     3.25452    90.43853   225.00000     3.49565
    39.50000    90.00000   225.00000     3.25453    90.43856   225.00000     3.49564
    39.60000    90.00000   225.00000     3.25453    90.43859   225.00000     3.49562
    39.70000    90.00000   225.00000     3.25453    90.43862   225.00000     3.49561
    39.80000    90.00000   225.00000     3.25454    90.43865   225.00000     3.49559
    39.90000    90.00000   225.00000     3.25454    90.43868   225.00000     3.49558
    40.00000    90.00000   225.00000     3.25455    90.43871   225.00000     3.49556
