 # applied field (T), theta (degree), phi (degree), abs [muB/unitcell], abs [T]
       0.00000000       0.00000000       0.00000000      37.42226327       1.30314664
       0.10000000       1.25804222      45.00000000      37.42221698       1.30314503
       0.20000000       2.45894022      45.00000000      37.42208710       1.30314051
       0.30000000       3.71700919      45.00000000      37.42186093       1.30313263
       0.40000000       4.97510544      45.00000000      37.42154369       1.30312158
       0.50000000       6.23323801      45.00000000      37.42113658       1.30310741
       0.60000000       7.49141578      45.00000000      37.42064112       1.30309015
       0.70000000       8.74964744      45.00000000      37.42005916       1.30306989
       0.80000000      10.00794142      45.00000000      37.41939289       1.30304669
       0.90000000      11.32347562      45.00000000      37.41860647       1.30301930
       1.00000000      12.58192228      45.00000000      37.41777547       1.30299036
       1.10000000      13.89763315      45.00000000      37.41682267       1.30295718
       1.20000000      15.21344665      45.00000000      37.41579016       1.30292123
       1.30000000      16.52937043      45.00000000      37.41468202       1.30288264
       1.40000000      17.90260529      45.00000000      37.41344618       1.30283961
       1.50000000      19.27597590      45.00000000      37.41213738       1.30279403
       1.60000000      20.64948910      45.00000000      37.41076109       1.30274610
       1.70000000      22.08036381      45.00000000      37.40925761       1.30269375
       1.80000000      23.51140648      45.00000000      37.40769315       1.30263927
       1.90000000      24.94262235      45.00000000      37.40607452       1.30258290
       2.00000000      26.43125070      45.00000000      37.40433634       1.30252238
       2.10000000      27.97731873      45.00000000      37.40248029       1.30245774
       2.20000000      29.58085432      45.00000000      37.40050975       1.30238912
       2.30000000      31.18462482      45.00000000      37.39850693       1.30231938
       2.40000000      32.84590076      45.00000000      37.39640380       1.30224614
       2.50000000      34.56470889      45.00000000      37.39420845       1.30216969
       2.60000000      36.34107515      45.00000000      37.39193087       1.30209038
       2.70000000      38.17502420      45.00000000      37.38958295       1.30200862
       2.80000000      40.06657890      45.00000000      37.38717844       1.30192489
       2.90000000      42.13039738      45.00000000      37.38457986       1.30183440
       3.00000000      44.25190025      45.00000000      37.38196364       1.30174330
       3.10000000      46.48844058      45.00000000      37.37927834       1.30164979
       3.20000000      48.89740789      45.00000000      37.37648435       1.30155249
       3.30000000      51.47886549      45.00000000      37.37362560       1.30145294
       3.40000000      54.29023784      45.00000000      37.37069038       1.30135073
       3.50000000      57.38897619      45.00000000      37.36769189       1.30124631
       3.60000000      60.88994228      45.00000000      37.36462309       1.30113945
       3.70000000      65.02284495      45.00000000      37.36145373       1.30102908
       3.80000000      70.07489138      45.00000000      37.35826788       1.30091814
       3.90000000      77.30945775      45.00000000      37.35500438       1.30080450
       4.00000000      90.00000000      45.00000000      37.35291163       1.30073163
       4.10000000      90.00000000      45.00000000      37.35318070       1.30074099
       4.20000000      90.00000000      45.00000000      37.35344975       1.30075036
       4.30000000      90.00000000      45.00000000      37.35371877       1.30075973
       4.40000000      90.00000000      45.00000000      37.35398778       1.30076910
       4.50000000      90.00000000      45.00000000      37.35425676       1.30077847
       4.60000000      90.00000000      45.00000000      37.35452573       1.30078783
       4.70000000      90.00000000      45.00000000      37.35479467       1.30079720
       4.80000000      90.00000000      45.00000000      37.35506359       1.30080656
       4.90000000      90.00000000      45.00000000      37.35533249       1.30081593
       5.00000000      90.00000000      45.00000000      37.35560137       1.30082529
       5.10000000      90.00000000      45.00000000      37.35587022       1.30083465
       5.20000000      90.00000000      45.00000000      37.35613906       1.30084401
       5.30000000      90.00000000      45.00000000      37.35640787       1.30085337
       5.40000000      90.00000000      45.00000000      37.35667667       1.30086273
       5.50000000      90.00000000      45.00000000      37.35694544       1.30087209
       5.60000000      90.00000000      45.00000000      37.35721419       1.30088145
       5.70000000      90.00000000      45.00000000      37.35748292       1.30089081
       5.80000000      90.00000000      45.00000000      37.35775163       1.30090017
       5.90000000      90.00000000      45.00000000      37.35802032       1.30090952
       6.00000000      90.00000000      45.00000000      37.35828899       1.30091888
       6.10000000      90.00000000      45.00000000      37.35855763       1.30092823
       6.20000000      90.00000000      45.00000000      37.35882626       1.30093759
       6.30000000      90.00000000      45.00000000      37.35909486       1.30094694
       6.40000000      90.00000000      45.00000000      37.35936344       1.30095630
       6.50000000      90.00000000      45.00000000      37.35963201       1.30096565
       6.60000000      90.00000000      45.00000000      37.35990055       1.30097500
       6.70000000      90.00000000      45.00000000      37.36016907       1.30098435
       6.80000000      90.00000000      45.00000000      37.36043757       1.30099370
       6.90000000      90.00000000      45.00000000      37.36070604       1.30100305
       7.00000000      90.00000000      45.00000000      37.36097450       1.30101240
       7.10000000      90.00000000      45.00000000      37.36124293       1.30102174
       7.20000000      90.00000000      45.00000000      37.36151135       1.30103109
       7.30000000      90.00000000      45.00000000      37.36177974       1.30104044
       7.40000000      90.00000000      45.00000000      37.36204812       1.30104978
       7.50000000      90.00000000      45.00000000      37.36231647       1.30105913
       7.60000000      90.00000000      45.00000000      37.36258480       1.30106847
       7.70000000      90.00000000      45.00000000      37.36285311       1.30107782
       7.80000000      90.00000000      45.00000000      37.36312140       1.30108716
       7.90000000      90.00000000      45.00000000      37.36338966       1.30109650
       8.00000000      90.00000000      45.00000000      37.36365791       1.30110584
       8.10000000      90.00000000      45.00000000      37.36392614       1.30111518
       8.20000000      90.00000000      45.00000000      37.36419434       1.30112452
       8.30000000      90.00000000      45.00000000      37.36446253       1.30113386
       8.40000000      90.00000000      45.00000000      37.36473069       1.30114320
       8.50000000      90.00000000      45.00000000      37.36499883       1.30115254
       8.60000000      90.00000000      45.00000000      37.36526695       1.30116187
       8.70000000      90.00000000      45.00000000      37.36553506       1.30117121
       8.80000000      90.00000000      45.00000000      37.36580314       1.30118054
       8.90000000      90.00000000      45.00000000      37.36607119       1.30118988
       9.00000000      90.00000000      45.00000000      37.36633923       1.30119921
       9.10000000      90.00000000      45.00000000      37.36660725       1.30120854
       9.20000000      90.00000000      45.00000000      37.36687525       1.30121788
       9.30000000      90.00000000      45.00000000      37.36714322       1.30122721
       9.40000000      90.00000000      45.00000000      37.36741118       1.30123654
       9.50000000      90.00000000      45.00000000      37.36767911       1.30124587
       9.60000000      90.00000000      45.00000000      37.36794702       1.30125520
       9.70000000      90.00000000      45.00000000      37.36821492       1.30126453
       9.80000000      90.00000000      45.00000000      37.36848279       1.30127386
       9.90000000      90.00000000      45.00000000      37.36875064       1.30128318
      10.00000000      90.00000000      45.00000000      37.36901847       1.30129251
      10.10000000      90.00000000      45.00000000      37.36928628       1.30130184
      10.20000000      90.00000000      45.00000000      37.36955407       1.30131116
      10.30000000      90.00000000      45.00000000      37.36982184       1.30132049
      10.40000000      90.00000000      45.00000000      37.37008959       1.30132981
      10.50000000      90.00000000      45.00000000      37.37035731       1.30133913
      10.60000000      90.00000000      45.00000000      37.37062502       1.30134845
      10.70000000      90.00000000      45.00000000      37.37089270       1.30135778
      10.80000000      90.00000000      45.00000000      37.37116037       1.30136710
      10.90000000      90.00000000      45.00000000      37.37142801       1.30137642
      11.00000000      90.00000000      45.00000000      37.37169564       1.30138574
      11.10000000      90.00000000      45.00000000      37.37196324       1.30139506
      11.20000000      90.00000000      45.00000000      37.37223082       1.30140437
      11.30000000      90.00000000      45.00000000      37.37249838       1.30141369
      11.40000000      90.00000000      45.00000000      37.37276592       1.30142301
      11.50000000      90.00000000      45.00000000      37.37303344       1.30143232
      11.60000000      90.00000000      45.00000000      37.37330094       1.30144164
      11.70000000      90.00000000      45.00000000      37.37356842       1.30145095
      11.80000000      90.00000000      45.00000000      37.37383588       1.30146027
      11.90000000      90.00000000      45.00000000      37.37410332       1.30146958
      12.00000000      90.00000000      45.00000000      37.37437074       1.30147889
      12.10000000      90.00000000      45.00000000      37.37463813       1.30148820
      12.20000000      90.00000000      45.00000000      37.37490551       1.30149751
      12.30000000      90.00000000      45.00000000      37.37517287       1.30150682
      12.40000000      90.00000000      45.00000000      37.37544020       1.30151613
      12.50000000      90.00000000      45.00000000      37.37570752       1.30152544
      12.60000000      90.00000000      45.00000000      37.37597481       1.30153475
      12.70000000      90.00000000      45.00000000      37.37624208       1.30154406
      12.80000000      90.00000000      45.00000000      37.37650934       1.30155336
      12.90000000      90.00000000      45.00000000      37.37677657       1.30156267
      13.00000000      90.00000000      45.00000000      37.37704378       1.30157197
      13.10000000      90.00000000      45.00000000      37.37731097       1.30158128
      13.20000000      90.00000000      45.00000000      37.37757815       1.30159058
      13.30000000      90.00000000      45.00000000      37.37784530       1.30159988
      13.40000000      90.00000000      45.00000000      37.37811243       1.30160919
      13.50000000      90.00000000      45.00000000      37.37837954       1.30161849
      13.60000000      90.00000000      45.00000000      37.37864663       1.30162779
      13.70000000      90.00000000      45.00000000      37.37891370       1.30163709
      13.80000000      90.00000000      45.00000000      37.37918074       1.30164639
      13.90000000      90.00000000      45.00000000      37.37944777       1.30165569
      14.00000000      90.00000000      45.00000000      37.37971478       1.30166499
      14.10000000      90.00000000      45.00000000      37.37998177       1.30167428
      14.20000000      90.00000000      45.00000000      37.38024874       1.30168358
      14.30000000      90.00000000      45.00000000      37.38051568       1.30169287
      14.40000000      90.00000000      45.00000000      37.38078261       1.30170217
      14.50000000      90.00000000      45.00000000      37.38104952       1.30171146
      14.60000000      90.00000000      45.00000000      37.38131640       1.30172076
      14.70000000      90.00000000      45.00000000      37.38158327       1.30173005
      14.80000000      90.00000000      45.00000000      37.38185011       1.30173934
      14.90000000      90.00000000      45.00000000      37.38211694       1.30174863
      15.00000000      90.00000000      45.00000000      37.38238374       1.30175793
      15.10000000      90.00000000      45.00000000      37.38265053       1.30176722
      15.20000000      90.00000000      45.00000000      37.38291729       1.30177651
      15.30000000      90.00000000      45.00000000      37.38318403       1.30178579
      15.40000000      90.00000000      45.00000000      37.38345076       1.30179508
      15.50000000      90.00000000      45.00000000      37.38371746       1.30180437
      15.60000000      90.00000000      45.00000000      37.38398414       1.30181366
      15.70000000      90.00000000      45.00000000      37.38425081       1.30182294
      15.80000000      90.00000000      45.00000000      37.38451745       1.30183223
      15.90000000      90.00000000      45.00000000      37.38478407       1.30184151
      16.00000000      90.00000000      45.00000000      37.38505067       1.30185080
      16.10000000      90.00000000      45.00000000      37.38531726       1.30186008
      16.20000000      90.00000000      45.00000000      37.38558382       1.30186936
      16.30000000      90.00000000      45.00000000      37.38585036       1.30187864
      16.40000000      90.00000000      45.00000000      37.38611688       1.30188792
      16.50000000      90.00000000      45.00000000      37.38638338       1.30189720
      16.60000000      90.00000000      45.00000000      37.38664986       1.30190648
      16.70000000      90.00000000      45.00000000      37.38691632       1.30191576
      16.80000000      90.00000000      45.00000000      37.38718276       1.30192504
      16.90000000      90.00000000      45.00000000      37.38744918       1.30193432
      17.00000000      90.00000000      45.00000000      37.38771559       1.30194360
      17.10000000      90.00000000      45.00000000      37.38798197       1.30195287
      17.20000000      90.00000000      45.00000000      37.38824833       1.30196215
      17.30000000      90.00000000      45.00000000      37.38851467       1.30197142
      17.40000000      90.00000000      45.00000000      37.38878099       1.30198070
      17.50000000      90.00000000      45.00000000      37.38904729       1.30198997
      17.60000000      90.00000000      45.00000000      37.38931357       1.30199924
      17.70000000      90.00000000      45.00000000      37.38957983       1.30200851
      17.80000000      90.00000000      45.00000000      37.38984607       1.30201778
      17.90000000      90.00000000      45.00000000      37.39011229       1.30202705
      18.00000000      90.00000000      45.00000000      37.39037849       1.30203632
      18.10000000      90.00000000      45.00000000      37.39064467       1.30204559
      18.20000000      90.00000000      45.00000000      37.39091082       1.30205486
      18.30000000      90.00000000      45.00000000      37.39117696       1.30206413
      18.40000000      90.00000000      45.00000000      37.39144308       1.30207340
      18.50000000      90.00000000      45.00000000      37.39170918       1.30208266
      18.60000000      90.00000000      45.00000000      37.39197526       1.30209193
      18.70000000      90.00000000      45.00000000      37.39224132       1.30210119
      18.80000000      90.00000000      45.00000000      37.39250736       1.30211046
      18.90000000      90.00000000      45.00000000      37.39277338       1.30211972
      19.00000000      90.00000000      45.00000000      37.39303938       1.30212898
      19.10000000      90.00000000      45.00000000      37.39330536       1.30213825
      19.20000000      90.00000000      45.00000000      37.39357132       1.30214751
      19.30000000      90.00000000      45.00000000      37.39383726       1.30215677
      19.40000000      90.00000000      45.00000000      37.39410318       1.30216603
      19.50000000      90.00000000      45.00000000      37.39436908       1.30217529
      19.60000000      90.00000000      45.00000000      37.39463496       1.30218455
      19.70000000      90.00000000      45.00000000      37.39490083       1.30219381
      19.80000000      90.00000000      45.00000000      37.39516667       1.30220306
      19.90000000      90.00000000      45.00000000      37.39543249       1.30221232
      20.00000000      90.00000000      45.00000000      37.39569829       1.30222157
      20.10000000      90.00000000      45.00000000      37.39596407       1.30223083
      20.20000000      90.00000000      45.00000000      37.39622983       1.30224008
      20.30000000      90.00000000      45.00000000      37.39649557       1.30224934
      20.40000000      90.00000000      45.00000000      37.39676129       1.30225859
      20.50000000      90.00000000      45.00000000      37.39702700       1.30226784
      20.60000000      90.00000000      45.00000000      37.39729268       1.30227710
      20.70000000      90.00000000      45.00000000      37.39755834       1.30228635
      20.80000000      90.00000000      45.00000000      37.39782398       1.30229560
      20.90000000      90.00000000      45.00000000      37.39808960       1.30230485
      21.00000000      90.00000000      45.00000000      37.39835521       1.30231410
      21.10000000      90.00000000      45.00000000      37.39862079       1.30232334
      21.20000000      90.00000000      45.00000000      37.39888635       1.30233259
      21.30000000      90.00000000      45.00000000      37.39915190       1.30234184
      21.40000000      90.00000000      45.00000000      37.39941742       1.30235109
      21.50000000      90.00000000      45.00000000      37.39968293       1.30236033
      21.60000000      90.00000000      45.00000000      37.39994841       1.30236958
      21.70000000      90.00000000      45.00000000      37.40021388       1.30237882
      21.80000000      90.00000000      45.00000000      37.40047932       1.30238806
      21.90000000      90.00000000      45.00000000      37.40074475       1.30239731
      22.00000000      90.00000000      45.00000000      37.40101015       1.30240655
      22.10000000      90.00000000      45.00000000      37.40127554       1.30241579
      22.20000000      90.00000000      45.00000000      37.40154090       1.30242503
      22.30000000      90.00000000      45.00000000      37.40180625       1.30243427
      22.40000000      90.00000000      45.00000000      37.40207158       1.30244351
      22.50000000      90.00000000      45.00000000      37.40233689       1.30245275
      22.60000000      90.00000000      45.00000000      37.40260217       1.30246199
      22.70000000      90.00000000      45.00000000      37.40286744       1.30247122
      22.80000000      90.00000000      45.00000000      37.40313269       1.30248046
      22.90000000      90.00000000      45.00000000      37.40339792       1.30248970
      23.00000000      90.00000000      45.00000000      37.40366313       1.30249893
      23.10000000      90.00000000      45.00000000      37.40392832       1.30250817
      23.20000000      90.00000000      45.00000000      37.40419349       1.30251740
      23.30000000      90.00000000      45.00000000      37.40445864       1.30252663
      23.40000000      90.00000000      45.00000000      37.40472377       1.30253587
      23.50000000      90.00000000      45.00000000      37.40498888       1.30254510
      23.60000000      90.00000000      45.00000000      37.40525398       1.30255433
      23.70000000      90.00000000      45.00000000      37.40551905       1.30256356
      23.80000000      90.00000000      45.00000000      37.40578410       1.30257279
      23.90000000      90.00000000      45.00000000      37.40604914       1.30258202
      24.00000000      90.00000000      45.00000000      37.40631415       1.30259125
      24.10000000      90.00000000      45.00000000      37.40657914       1.30260048
      24.20000000      90.00000000      45.00000000      37.40684412       1.30260970
      24.30000000      90.00000000      45.00000000      37.40710908       1.30261893
      24.40000000      90.00000000      45.00000000      37.40737401       1.30262816
      24.50000000      90.00000000      45.00000000      37.40763893       1.30263738
      24.60000000      90.00000000      45.00000000      37.40790383       1.30264661
      24.70000000      90.00000000      45.00000000      37.40816870       1.30265583
      24.80000000      90.00000000      45.00000000      37.40843356       1.30266505
      24.90000000      90.00000000      45.00000000      37.40869840       1.30267427
      25.00000000      90.00000000      45.00000000      37.40896322       1.30268350
      25.10000000      90.00000000      45.00000000      37.40922802       1.30269272
      25.20000000      90.00000000      45.00000000      37.40949280       1.30270194
      25.30000000      90.00000000      45.00000000      37.40975756       1.30271116
      25.40000000      90.00000000      45.00000000      37.41002231       1.30272038
      25.50000000      90.00000000      45.00000000      37.41028703       1.30272960
      25.60000000      90.00000000      45.00000000      37.41055173       1.30273881
      25.70000000      90.00000000      45.00000000      37.41081642       1.30274803
      25.80000000      90.00000000      45.00000000      37.41108108       1.30275725
      25.90000000      90.00000000      45.00000000      37.41134573       1.30276646
      26.00000000      90.00000000      45.00000000      37.41161035       1.30277568
      26.10000000      90.00000000      45.00000000      37.41187496       1.30278489
      26.20000000      90.00000000      45.00000000      37.41213955       1.30279411
      26.30000000      90.00000000      45.00000000      37.41240411       1.30280332
      26.40000000      90.00000000      45.00000000      37.41266866       1.30281253
      26.50000000      90.00000000      45.00000000      37.41293319       1.30282174
      26.60000000      90.00000000      45.00000000      37.41319770       1.30283095
      26.70000000      90.00000000      45.00000000      37.41346219       1.30284016
      26.80000000      90.00000000      45.00000000      37.41372667       1.30284937
      26.90000000      90.00000000      45.00000000      37.41399112       1.30285858
      27.00000000      90.00000000      45.00000000      37.41425555       1.30286779
      27.10000000      90.00000000      45.00000000      37.41451997       1.30287700
      27.20000000      90.00000000      45.00000000      37.41478436       1.30288620
      27.30000000      90.00000000      45.00000000      37.41504874       1.30289541
      27.40000000      90.00000000      45.00000000      37.41531309       1.30290462
      27.50000000      90.00000000      45.00000000      37.41557743       1.30291382
      27.60000000      90.00000000      45.00000000      37.41584175       1.30292303
      27.70000000      90.00000000      45.00000000      37.41610605       1.30293223
      27.80000000      90.00000000      45.00000000      37.41637033       1.30294143
      27.90000000      90.00000000      45.00000000      37.41663459       1.30295063
      28.00000000      90.00000000      45.00000000      37.41689883       1.30295984
      28.10000000      90.00000000      45.00000000      37.41716305       1.30296904
      28.20000000      90.00000000      45.00000000      37.41742726       1.30297824
      28.30000000      90.00000000      45.00000000      37.41769144       1.30298744
      28.40000000      90.00000000      45.00000000      37.41795561       1.30299664
      28.50000000      90.00000000      45.00000000      37.41821975       1.30300583
      28.60000000      90.00000000      45.00000000      37.41848388       1.30301503
      28.70000000      90.00000000      45.00000000      37.41874799       1.30302423
      28.80000000      90.00000000      45.00000000      37.41901208       1.30303343
      28.90000000      90.00000000      45.00000000      37.41927614       1.30304262
      29.00000000      90.00000000      45.00000000      37.41954020       1.30305182
      29.10000000      90.00000000      45.00000000      37.41980423       1.30306101
      29.20000000      90.00000000      45.00000000      37.42006824       1.30307020
      29.30000000      90.00000000      45.00000000      37.42033223       1.30307940
      29.40000000      90.00000000      45.00000000      37.42059621       1.30308859
      29.50000000      90.00000000      45.00000000      37.42086016       1.30309778
      29.60000000      90.00000000      45.00000000      37.42112410       1.30310697
      29.70000000      90.00000000      45.00000000      37.42138802       1.30311616
      29.80000000      90.00000000      45.00000000      37.42165192       1.30312535
      29.90000000      90.00000000      45.00000000      37.42191580       1.30313454
      30.00000000      90.00000000      45.00000000      37.42217966       1.30314373
      30.10000000      90.00000000      45.00000000      37.42244350       1.30315292
      30.20000000      90.00000000      45.00000000      37.42270732       1.30316210
      30.30000000      90.00000000      45.00000000      37.42297112       1.30317129
      30.40000000      90.00000000      45.00000000      37.42323491       1.30318048
      30.50000000      90.00000000      45.00000000      37.42349868       1.30318966
      30.60000000      90.00000000      45.00000000      37.42376242       1.30319885
      30.70000000      90.00000000      45.00000000      37.42402615       1.30320803
      30.80000000      90.00000000      45.00000000      37.42428986       1.30321721
      30.90000000      90.00000000      45.00000000      37.42455355       1.30322640
      31.00000000      90.00000000      45.00000000      37.42481722       1.30323558
      31.10000000      90.00000000      45.00000000      37.42508087       1.30324476
      31.20000000      90.00000000      45.00000000      37.42534451       1.30325394
      31.30000000      90.00000000      45.00000000      37.42560812       1.30326312
      31.40000000      90.00000000      45.00000000      37.42587172       1.30327230
      31.50000000      90.00000000      45.00000000      37.42613530       1.30328148
      31.60000000      90.00000000      45.00000000      37.42639886       1.30329065
      31.70000000      90.00000000      45.00000000      37.42666240       1.30329983
      31.80000000      90.00000000      45.00000000      37.42692592       1.30330901
      31.90000000      90.00000000      45.00000000      37.42718942       1.30331818
      32.00000000      90.00000000      45.00000000      37.42745290       1.30332736
      32.10000000      90.00000000      45.00000000      37.42771637       1.30333653
      32.20000000      90.00000000      45.00000000      37.42797981       1.30334571
      32.30000000      90.00000000      45.00000000      37.42824324       1.30335488
      32.40000000      90.00000000      45.00000000      37.42850665       1.30336405
      32.50000000      90.00000000      45.00000000      37.42877004       1.30337322
      32.60000000      90.00000000      45.00000000      37.42903341       1.30338240
      32.70000000      90.00000000      45.00000000      37.42929676       1.30339157
      32.80000000      90.00000000      45.00000000      37.42956009       1.30340074
      32.90000000      90.00000000      45.00000000      37.42982341       1.30340991
      33.00000000      90.00000000      45.00000000      37.43008670       1.30341907
      33.10000000      90.00000000      45.00000000      37.43034998       1.30342824
      33.20000000      90.00000000      45.00000000      37.43061324       1.30343741
      33.30000000      90.00000000      45.00000000      37.43087648       1.30344658
      33.40000000      90.00000000      45.00000000      37.43113970       1.30345574
      33.50000000      90.00000000      45.00000000      37.43140290       1.30346491
      33.60000000      90.00000000      45.00000000      37.43166609       1.30347407
      33.70000000      90.00000000      45.00000000      37.43192925       1.30348324
      33.80000000      90.00000000      45.00000000      37.43219240       1.30349240
      33.90000000      90.00000000      45.00000000      37.43245553       1.30350156
      34.00000000      90.00000000      45.00000000      37.43271864       1.30351073
      34.10000000      90.00000000      45.00000000      37.43298173       1.30351989
      34.20000000      90.00000000      45.00000000      37.43324480       1.30352905
      34.30000000      90.00000000      45.00000000      37.43350786       1.30353821
      34.40000000      90.00000000      45.00000000      37.43377089       1.30354737
      34.50000000      90.00000000      45.00000000      37.43403391       1.30355653
      34.60000000      90.00000000      45.00000000      37.43429691       1.30356569
      34.70000000      90.00000000      45.00000000      37.43455989       1.30357484
      34.80000000      90.00000000      45.00000000      37.43482285       1.30358400
      34.90000000      90.00000000      45.00000000      37.43508579       1.30359316
      35.00000000      90.00000000      45.00000000      37.43534871       1.30360231
      35.10000000      90.00000000      45.00000000      37.43561162       1.30361147
      35.20000000      90.00000000      45.00000000      37.43587451       1.30362062
      35.30000000      90.00000000      45.00000000      37.43613737       1.30362978
      35.40000000      90.00000000      45.00000000      37.43640022       1.30363893
      35.50000000      90.00000000      45.00000000      37.43666306       1.30364808
      35.60000000      90.00000000      45.00000000      37.43692587       1.30365723
      35.70000000      90.00000000      45.00000000      37.43718866       1.30366638
      35.80000000      90.00000000      45.00000000      37.43745144       1.30367554
      35.90000000      90.00000000      45.00000000      37.43771420       1.30368469
      36.00000000      90.00000000      45.00000000      37.43797694       1.30369383
      36.10000000      90.00000000      45.00000000      37.43823966       1.30370298
      36.20000000      90.00000000      45.00000000      37.43850236       1.30371213
      36.30000000      90.00000000      45.00000000      37.43876504       1.30372128
      36.40000000      90.00000000      45.00000000      37.43902771       1.30373043
      36.50000000      90.00000000      45.00000000      37.43929036       1.30373957
      36.60000000      90.00000000      45.00000000      37.43955299       1.30374872
      36.70000000      90.00000000      45.00000000      37.43981560       1.30375786
      36.80000000      90.00000000      45.00000000      37.44007819       1.30376701
      36.90000000      90.00000000      45.00000000      37.44034076       1.30377615
      37.00000000      90.00000000      45.00000000      37.44060332       1.30378529
      37.10000000      90.00000000      45.00000000      37.44086586       1.30379443
      37.20000000      90.00000000      45.00000000      37.44112838       1.30380358
      37.30000000      90.00000000      45.00000000      37.44139088       1.30381272
      37.40000000      90.00000000      45.00000000      37.44165336       1.30382186
      37.50000000      90.00000000      45.00000000      37.44191582       1.30383100
      37.60000000      90.00000000      45.00000000      37.44217827       1.30384014
      37.70000000      90.00000000      45.00000000      37.44244070       1.30384927
      37.80000000      90.00000000      45.00000000      37.44270311       1.30385841
      37.90000000      90.00000000      45.00000000      37.44296550       1.30386755
      38.00000000      90.00000000      45.00000000      37.44322787       1.30387669
      38.10000000      90.00000000      45.00000000      37.44349023       1.30388582
      38.20000000      90.00000000      45.00000000      37.44375256       1.30389496
      38.30000000      90.00000000      45.00000000      37.44401488       1.30390409
      38.40000000      90.00000000      45.00000000      37.44427718       1.30391323
      38.50000000      90.00000000      45.00000000      37.44453946       1.30392236
      38.60000000      90.00000000      45.00000000      37.44480173       1.30393149
      38.70000000      90.00000000      45.00000000      37.44506397       1.30394062
      38.80000000      90.00000000      45.00000000      37.44532620       1.30394976
      38.90000000      90.00000000      45.00000000      37.44558841       1.30395889
      39.00000000      90.00000000      45.00000000      37.44585060       1.30396802
      39.10000000      90.00000000      45.00000000      37.44611277       1.30397715
      39.20000000      90.00000000      45.00000000      37.44637493       1.30398628
      39.30000000      90.00000000      45.00000000      37.44663706       1.30399540
      39.40000000      90.00000000      45.00000000      37.44689918       1.30400453
      39.50000000      90.00000000      45.00000000      37.44716128       1.30401366
      39.60000000      90.00000000      45.00000000      37.44742336       1.30402279
      39.70000000      90.00000000      45.00000000      37.44768543       1.30403191
      39.80000000      90.00000000      45.00000000      37.44794747       1.30404104
      39.90000000      90.00000000      45.00000000      37.44820950       1.30405016
      40.00000000      90.00000000      45.00000000      37.44847151       1.30405928
