 # applied field (T), theta (degree), phi (degree), abs [muB/unitcell], abs [T]
       0.00000000       0.00000000       0.00000000      37.27651723       1.25466549
       0.10000000       1.08669457      45.00000000      37.27674697       1.25467323
       0.20000000       2.17340223      45.00000000      37.27692608       1.25467925
       0.30000000       3.26012983      45.00000000      37.27705521       1.25468360
       0.40000000       4.34688394      45.00000000      37.27713531       1.25468630
       0.50000000       5.49083479      45.00000000      37.27716669       1.25468735
       0.60000000       6.57766289      45.00000000      37.27715012       1.25468679
       0.70000000       7.66453594      45.00000000      37.27708924       1.25468475
       0.80000000       8.80863120      45.00000000      37.27697745       1.25468098
       0.90000000       9.95278852      45.00000000      37.27682116       1.25467572
       1.00000000      11.03983473      45.00000000      37.27663679       1.25466952
       1.10000000      12.18412869      45.00000000      37.27640318       1.25466165
       1.20000000      13.38568689      45.00000000      37.27611785       1.25465205
       1.30000000      14.53014446      45.00000000      37.27581763       1.25464195
       1.40000000      15.73188411      45.00000000      37.27547089       1.25463027
       1.50000000      16.93372326      45.00000000      37.27510006       1.25461779
       1.60000000      18.13566580      45.00000000      37.27471049       1.25460468
       1.70000000      19.39492712      45.00000000      37.27428429       1.25459034
       1.80000000      20.65430989      45.00000000      37.27384974       1.25457571
       1.90000000      21.97104147      45.00000000      37.27338940       1.25456022
       2.00000000      23.28791342      45.00000000      37.27293436       1.25454490
       2.10000000      24.66216602      45.00000000      37.27246842       1.25452922
       2.20000000      26.03657806      45.00000000      37.27202356       1.25451424
       2.30000000      27.46840349      45.00000000      37.27158555       1.25449950
       2.40000000      28.90040709      45.00000000      37.27118569       1.25448604
       2.50000000      30.44712504      45.00000000      37.27079453       1.25447288
       2.60000000      32.05133184      45.00000000      37.27044720       1.25446119
       2.70000000      33.65576939      45.00000000      37.27017122       1.25445190
       2.80000000      35.37502539      45.00000000      37.26995064       1.25444447
       2.90000000      37.20915440      45.00000000      37.26980682       1.25443963
       3.00000000      39.10089818      45.00000000      37.26976483       1.25443822
       3.10000000      41.16492969      45.00000000      37.26983079       1.25444044
       3.20000000      43.34399735      45.00000000      37.27002575       1.25444700
       3.30000000      45.69549333      45.00000000      37.27036102       1.25445828
       3.40000000      48.27684223      45.00000000      37.27084835       1.25447469
       3.50000000      51.14549114      45.00000000      37.27149082       1.25449631
       3.60000000      54.47364959      45.00000000      37.27228967       1.25452320
       3.70000000      58.43356649      45.00000000      37.27319532       1.25455368
       3.80000000      63.36961358      45.00000000      37.27405722       1.25458269
       3.90000000      70.37212142      45.00000000      37.27438633       1.25459377
       4.00000000      90.00000000      45.00000000      37.26728300       1.25435468
       4.10000000      90.00000000      45.00000000      37.26752063       1.25436268
       4.20000000      90.00000000      45.00000000      37.26775824       1.25437068
       4.30000000      90.00000000      45.00000000      37.26799584       1.25437868
       4.40000000      90.00000000      45.00000000      37.26823341       1.25438667
       4.50000000      90.00000000      45.00000000      37.26847098       1.25439467
       4.60000000      90.00000000      45.00000000      37.26870852       1.25440266
       4.70000000      90.00000000      45.00000000      37.26894605       1.25441066
       4.80000000      90.00000000      45.00000000      37.26918356       1.25441865
       4.90000000      90.00000000      45.00000000      37.26942105       1.25442665
       5.00000000      90.00000000      45.00000000      37.26965853       1.25443464
       5.10000000      90.00000000      45.00000000      37.26989599       1.25444263
       5.20000000      90.00000000      45.00000000      37.27013344       1.25445062
       5.30000000      90.00000000      45.00000000      37.27037086       1.25445862
       5.40000000      90.00000000      45.00000000      37.27060827       1.25446661
       5.50000000      90.00000000      45.00000000      37.27084565       1.25447460
       5.60000000      90.00000000      45.00000000      37.27108298       1.25448259
       5.70000000      90.00000000      45.00000000      37.27132029       1.25449057
       5.80000000      90.00000000      45.00000000      37.27155758       1.25449856
       5.90000000      90.00000000      45.00000000      37.27179485       1.25450655
       6.00000000      90.00000000      45.00000000      37.27203211       1.25451453
       6.10000000      90.00000000      45.00000000      37.27226935       1.25452252
       6.20000000      90.00000000      45.00000000      37.27250657       1.25453050
       6.30000000      90.00000000      45.00000000      37.27274377       1.25453848
       6.40000000      90.00000000      45.00000000      37.27298096       1.25454647
       6.50000000      90.00000000      45.00000000      37.27321814       1.25455445
       6.60000000      90.00000000      45.00000000      37.27345529       1.25456243
       6.70000000      90.00000000      45.00000000      37.27369243       1.25457041
       6.80000000      90.00000000      45.00000000      37.27392955       1.25457840
       6.90000000      90.00000000      45.00000000      37.27416665       1.25458638
       7.00000000      90.00000000      45.00000000      37.27440374       1.25459436
       7.10000000      90.00000000      45.00000000      37.27464080       1.25460234
       7.20000000      90.00000000      45.00000000      37.27487785       1.25461031
       7.30000000      90.00000000      45.00000000      37.27511488       1.25461829
       7.40000000      90.00000000      45.00000000      37.27535189       1.25462627
       7.50000000      90.00000000      45.00000000      37.27558888       1.25463425
       7.60000000      90.00000000      45.00000000      37.27582585       1.25464222
       7.70000000      90.00000000      45.00000000      37.27606280       1.25465020
       7.80000000      90.00000000      45.00000000      37.27629974       1.25465817
       7.90000000      90.00000000      45.00000000      37.27653665       1.25466615
       8.00000000      90.00000000      45.00000000      37.27677355       1.25467412
       8.10000000      90.00000000      45.00000000      37.27701043       1.25468209
       8.20000000      90.00000000      45.00000000      37.27724729       1.25469007
       8.30000000      90.00000000      45.00000000      37.27748413       1.25469804
       8.40000000      90.00000000      45.00000000      37.27772095       1.25470601
       8.50000000      90.00000000      45.00000000      37.27795776       1.25471398
       8.60000000      90.00000000      45.00000000      37.27819454       1.25472195
       8.70000000      90.00000000      45.00000000      37.27843131       1.25472992
       8.80000000      90.00000000      45.00000000      37.27866806       1.25473789
       8.90000000      90.00000000      45.00000000      37.27890480       1.25474585
       9.00000000      90.00000000      45.00000000      37.27914151       1.25475382
       9.10000000      90.00000000      45.00000000      37.27937821       1.25476179
       9.20000000      90.00000000      45.00000000      37.27961489       1.25476975
       9.30000000      90.00000000      45.00000000      37.27985378       1.25477780
       9.40000000      90.00000000      45.00000000      37.28009048       1.25478576
       9.50000000      90.00000000      45.00000000      37.28032717       1.25479373
       9.60000000      90.00000000      45.00000000      37.28056384       1.25480169
       9.70000000      90.00000000      45.00000000      37.28080049       1.25480966
       9.80000000      90.00000000      45.00000000      37.28103712       1.25481762
       9.90000000      90.00000000      45.00000000      37.28127374       1.25482559
      10.00000000      90.00000000      45.00000000      37.28151034       1.25483355
      10.10000000      90.00000000      45.00000000      37.28174692       1.25484152
      10.20000000      90.00000000      45.00000000      37.28198349       1.25484948
      10.30000000      90.00000000      45.00000000      37.28222003       1.25485744
      10.40000000      90.00000000      45.00000000      37.28245656       1.25486540
      10.50000000      90.00000000      45.00000000      37.28269307       1.25487336
      10.60000000      90.00000000      45.00000000      37.28292957       1.25488132
      10.70000000      90.00000000      45.00000000      37.28316604       1.25488928
      10.80000000      90.00000000      45.00000000      37.28340250       1.25489724
      10.90000000      90.00000000      45.00000000      37.28363895       1.25490520
      11.00000000      90.00000000      45.00000000      37.28387537       1.25491316
      11.10000000      90.00000000      45.00000000      37.28411178       1.25492111
      11.20000000      90.00000000      45.00000000      37.28434817       1.25492907
      11.30000000      90.00000000      45.00000000      37.28458454       1.25493703
      11.40000000      90.00000000      45.00000000      37.28482089       1.25494498
      11.50000000      90.00000000      45.00000000      37.28505723       1.25495294
      11.60000000      90.00000000      45.00000000      37.28529355       1.25496089
      11.70000000      90.00000000      45.00000000      37.28552985       1.25496884
      11.80000000      90.00000000      45.00000000      37.28576614       1.25497680
      11.90000000      90.00000000      45.00000000      37.28600240       1.25498475
      12.00000000      90.00000000      45.00000000      37.28623865       1.25499270
      12.10000000      90.00000000      45.00000000      37.28647488       1.25500065
      12.20000000      90.00000000      45.00000000      37.28671110       1.25500860
      12.30000000      90.00000000      45.00000000      37.28694729       1.25501655
      12.40000000      90.00000000      45.00000000      37.28718347       1.25502450
      12.50000000      90.00000000      45.00000000      37.28741963       1.25503245
      12.60000000      90.00000000      45.00000000      37.28765577       1.25504040
      12.70000000      90.00000000      45.00000000      37.28789190       1.25504835
      12.80000000      90.00000000      45.00000000      37.28812800       1.25505629
      12.90000000      90.00000000      45.00000000      37.28836409       1.25506424
      13.00000000      90.00000000      45.00000000      37.28860016       1.25507218
      13.10000000      90.00000000      45.00000000      37.28883622       1.25508013
      13.20000000      90.00000000      45.00000000      37.28907225       1.25508807
      13.30000000      90.00000000      45.00000000      37.28930827       1.25509602
      13.40000000      90.00000000      45.00000000      37.28954427       1.25510396
      13.50000000      90.00000000      45.00000000      37.28978026       1.25511190
      13.60000000      90.00000000      45.00000000      37.29001622       1.25511985
      13.70000000      90.00000000      45.00000000      37.29025217       1.25512779
      13.80000000      90.00000000      45.00000000      37.29048810       1.25513573
      13.90000000      90.00000000      45.00000000      37.29072401       1.25514367
      14.00000000      90.00000000      45.00000000      37.29095990       1.25515161
      14.10000000      90.00000000      45.00000000      37.29119578       1.25515955
      14.20000000      90.00000000      45.00000000      37.29143164       1.25516749
      14.30000000      90.00000000      45.00000000      37.29166748       1.25517542
      14.40000000      90.00000000      45.00000000      37.29190330       1.25518336
      14.50000000      90.00000000      45.00000000      37.29213911       1.25519130
      14.60000000      90.00000000      45.00000000      37.29237489       1.25519924
      14.70000000      90.00000000      45.00000000      37.29261071       1.25520717
      14.80000000      90.00000000      45.00000000      37.29284646       1.25521511
      14.90000000      90.00000000      45.00000000      37.29308219       1.25522304
      15.00000000      90.00000000      45.00000000      37.29331791       1.25523098
      15.10000000      90.00000000      45.00000000      37.29355361       1.25523891
      15.20000000      90.00000000      45.00000000      37.29378929       1.25524684
      15.30000000      90.00000000      45.00000000      37.29402495       1.25525477
      15.40000000      90.00000000      45.00000000      37.29426060       1.25526270
      15.50000000      90.00000000      45.00000000      37.29449623       1.25527064
      15.60000000      90.00000000      45.00000000      37.29473184       1.25527857
      15.70000000      90.00000000      45.00000000      37.29496743       1.25528650
      15.80000000      90.00000000      45.00000000      37.29520300       1.25529442
      15.90000000      90.00000000      45.00000000      37.29543856       1.25530235
      16.00000000      90.00000000      45.00000000      37.29567410       1.25531028
      16.10000000      90.00000000      45.00000000      37.29590963       1.25531821
      16.20000000      90.00000000      45.00000000      37.29614513       1.25532614
      16.30000000      90.00000000      45.00000000      37.29638062       1.25533406
      16.40000000      90.00000000      45.00000000      37.29661609       1.25534199
      16.50000000      90.00000000      45.00000000      37.29685154       1.25534991
      16.60000000      90.00000000      45.00000000      37.29708698       1.25535784
      16.70000000      90.00000000      45.00000000      37.29732240       1.25536576
      16.80000000      90.00000000      45.00000000      37.29755780       1.25537368
      16.90000000      90.00000000      45.00000000      37.29779318       1.25538161
      17.00000000      90.00000000      45.00000000      37.29802854       1.25538953
      17.10000000      90.00000000      45.00000000      37.29826389       1.25539745
      17.20000000      90.00000000      45.00000000      37.29849922       1.25540537
      17.30000000      90.00000000      45.00000000      37.29873453       1.25541329
      17.40000000      90.00000000      45.00000000      37.29896982       1.25542121
      17.50000000      90.00000000      45.00000000      37.29920509       1.25542913
      17.60000000      90.00000000      45.00000000      37.29944035       1.25543705
      17.70000000      90.00000000      45.00000000      37.29967559       1.25544496
      17.80000000      90.00000000      45.00000000      37.29991080       1.25545288
      17.90000000      90.00000000      45.00000000      37.30014600       1.25546080
      18.00000000      90.00000000      45.00000000      37.30038118       1.25546871
      18.10000000      90.00000000      45.00000000      37.30061634       1.25547663
      18.20000000      90.00000000      45.00000000      37.30085149       1.25548454
      18.30000000      90.00000000      45.00000000      37.30108661       1.25549246
      18.40000000      90.00000000      45.00000000      37.30132171       1.25550037
      18.50000000      90.00000000      45.00000000      37.30155679       1.25550828
      18.60000000      90.00000000      45.00000000      37.30179255       1.25551622
      18.70000000      90.00000000      45.00000000      37.30202759       1.25552413
      18.80000000      90.00000000      45.00000000      37.30226261       1.25553204
      18.90000000      90.00000000      45.00000000      37.30249760       1.25553995
      19.00000000      90.00000000      45.00000000      37.30273258       1.25554786
      19.10000000      90.00000000      45.00000000      37.30296754       1.25555577
      19.20000000      90.00000000      45.00000000      37.30320248       1.25556367
      19.30000000      90.00000000      45.00000000      37.30343740       1.25557158
      19.40000000      90.00000000      45.00000000      37.30367230       1.25557949
      19.50000000      90.00000000      45.00000000      37.30390718       1.25558739
      19.60000000      90.00000000      45.00000000      37.30414204       1.25559530
      19.70000000      90.00000000      45.00000000      37.30437688       1.25560320
      19.80000000      90.00000000      45.00000000      37.30461170       1.25561111
      19.90000000      90.00000000      45.00000000      37.30484651       1.25561901
      20.00000000      90.00000000      45.00000000      37.30508130       1.25562691
      20.10000000      90.00000000      45.00000000      37.30531606       1.25563481
      20.20000000      90.00000000      45.00000000      37.30555081       1.25564271
      20.30000000      90.00000000      45.00000000      37.30578554       1.25565062
      20.40000000      90.00000000      45.00000000      37.30602026       1.25565852
      20.50000000      90.00000000      45.00000000      37.30625495       1.25566641
      20.60000000      90.00000000      45.00000000      37.30648963       1.25567431
      20.70000000      90.00000000      45.00000000      37.30672429       1.25568221
      20.80000000      90.00000000      45.00000000      37.30695893       1.25569011
      20.90000000      90.00000000      45.00000000      37.30719355       1.25569801
      21.00000000      90.00000000      45.00000000      37.30742816       1.25570590
      21.10000000      90.00000000      45.00000000      37.30766275       1.25571380
      21.20000000      90.00000000      45.00000000      37.30789732       1.25572169
      21.30000000      90.00000000      45.00000000      37.30813187       1.25572959
      21.40000000      90.00000000      45.00000000      37.30836640       1.25573748
      21.50000000      90.00000000      45.00000000      37.30860092       1.25574538
      21.60000000      90.00000000      45.00000000      37.30883542       1.25575327
      21.70000000      90.00000000      45.00000000      37.30906990       1.25576116
      21.80000000      90.00000000      45.00000000      37.30930437       1.25576905
      21.90000000      90.00000000      45.00000000      37.30953882       1.25577694
      22.00000000      90.00000000      45.00000000      37.30977325       1.25578483
      22.10000000      90.00000000      45.00000000      37.31000766       1.25579272
      22.20000000      90.00000000      45.00000000      37.31024205       1.25580061
      22.30000000      90.00000000      45.00000000      37.31047643       1.25580850
      22.40000000      90.00000000      45.00000000      37.31071079       1.25581639
      22.50000000      90.00000000      45.00000000      37.31094513       1.25582428
      22.60000000      90.00000000      45.00000000      37.31117946       1.25583217
      22.70000000      90.00000000      45.00000000      37.31141377       1.25584005
      22.80000000      90.00000000      45.00000000      37.31164806       1.25584794
      22.90000000      90.00000000      45.00000000      37.31188233       1.25585582
      23.00000000      90.00000000      45.00000000      37.31211658       1.25586371
      23.10000000      90.00000000      45.00000000      37.31235082       1.25587159
      23.20000000      90.00000000      45.00000000      37.31258504       1.25587948
      23.30000000      90.00000000      45.00000000      37.31281924       1.25588736
      23.40000000      90.00000000      45.00000000      37.31305343       1.25589524
      23.50000000      90.00000000      45.00000000      37.31328760       1.25590312
      23.60000000      90.00000000      45.00000000      37.31352175       1.25591100
      23.70000000      90.00000000      45.00000000      37.31375588       1.25591888
      23.80000000      90.00000000      45.00000000      37.31398999       1.25592676
      23.90000000      90.00000000      45.00000000      37.31422409       1.25593464
      24.00000000      90.00000000      45.00000000      37.31445817       1.25594252
      24.10000000      90.00000000      45.00000000      37.31469223       1.25595040
      24.20000000      90.00000000      45.00000000      37.31492627       1.25595828
      24.30000000      90.00000000      45.00000000      37.31516030       1.25596615
      24.40000000      90.00000000      45.00000000      37.31539431       1.25597403
      24.50000000      90.00000000      45.00000000      37.31562830       1.25598191
      24.60000000      90.00000000      45.00000000      37.31586228       1.25598978
      24.70000000      90.00000000      45.00000000      37.31609623       1.25599766
      24.80000000      90.00000000      45.00000000      37.31633017       1.25600553
      24.90000000      90.00000000      45.00000000      37.31656409       1.25601340
      25.00000000      90.00000000      45.00000000      37.31679799       1.25602128
      25.10000000      90.00000000      45.00000000      37.31703188       1.25602915
      25.20000000      90.00000000      45.00000000      37.31726575       1.25603702
      25.30000000      90.00000000      45.00000000      37.31749960       1.25604489
      25.40000000      90.00000000      45.00000000      37.31773343       1.25605276
      25.50000000      90.00000000      45.00000000      37.31796725       1.25606063
      25.60000000      90.00000000      45.00000000      37.31820104       1.25606850
      25.70000000      90.00000000      45.00000000      37.31843685       1.25607644
      25.80000000      90.00000000      45.00000000      37.31867059       1.25608430
      25.90000000      90.00000000      45.00000000      37.31890431       1.25609217
      26.00000000      90.00000000      45.00000000      37.31913801       1.25610004
      26.10000000      90.00000000      45.00000000      37.31937169       1.25610790
      26.20000000      90.00000000      45.00000000      37.31960535       1.25611577
      26.30000000      90.00000000      45.00000000      37.31983900       1.25612363
      26.40000000      90.00000000      45.00000000      37.32007262       1.25613149
      26.50000000      90.00000000      45.00000000      37.32030623       1.25613936
      26.60000000      90.00000000      45.00000000      37.32053981       1.25614722
      26.70000000      90.00000000      45.00000000      37.32077336       1.25615508
      26.80000000      90.00000000      45.00000000      37.32100687       1.25616294
      26.90000000      90.00000000      45.00000000      37.32124035       1.25617080
      27.00000000      90.00000000      45.00000000      37.32147379       1.25617866
      27.10000000      90.00000000      45.00000000      37.32170721       1.25618651
      27.20000000      90.00000000      45.00000000      37.32194061       1.25619437
      27.30000000      90.00000000      45.00000000      37.32217400       1.25620222
      27.40000000      90.00000000      45.00000000      37.32240739       1.25621008
      27.50000000      90.00000000      45.00000000      37.32264083       1.25621794
      27.60000000      90.00000000      45.00000000      37.32287446       1.25622580
      27.70000000      90.00000000      45.00000000      37.32310812       1.25623366
      27.80000000      90.00000000      45.00000000      37.32334160       1.25624152
      27.90000000      90.00000000      45.00000000      37.32357501       1.25624938
      28.00000000      90.00000000      45.00000000      37.32380838       1.25625723
      28.10000000      90.00000000      45.00000000      37.32404173       1.25626509
      28.20000000      90.00000000      45.00000000      37.32427505       1.25627294
      28.30000000      90.00000000      45.00000000      37.32450835       1.25628079
      28.40000000      90.00000000      45.00000000      37.32474164       1.25628865
      28.50000000      90.00000000      45.00000000      37.32497491       1.25629650
      28.60000000      90.00000000      45.00000000      37.32520816       1.25630435
      28.70000000      90.00000000      45.00000000      37.32544140       1.25631220
      28.80000000      90.00000000      45.00000000      37.32567461       1.25632005
      28.90000000      90.00000000      45.00000000      37.32590781       1.25632790
      29.00000000      90.00000000      45.00000000      37.32614099       1.25633575
      29.10000000      90.00000000      45.00000000      37.32637415       1.25634359
      29.20000000      90.00000000      45.00000000      37.32660730       1.25635144
      29.30000000      90.00000000      45.00000000      37.32684043       1.25635929
      29.40000000      90.00000000      45.00000000      37.32707354       1.25636713
      29.50000000      90.00000000      45.00000000      37.32730664       1.25637498
      29.60000000      90.00000000      45.00000000      37.32753971       1.25638282
      29.70000000      90.00000000      45.00000000      37.32777277       1.25639067
      29.80000000      90.00000000      45.00000000      37.32800582       1.25639851
      29.90000000      90.00000000      45.00000000      37.32823884       1.25640636
      30.00000000      90.00000000      45.00000000      37.32847185       1.25641420
      30.10000000      90.00000000      45.00000000      37.32870484       1.25642204
      30.20000000      90.00000000      45.00000000      37.32893781       1.25642988
      30.30000000      90.00000000      45.00000000      37.32917077       1.25643772
      30.40000000      90.00000000      45.00000000      37.32940371       1.25644556
      30.50000000      90.00000000      45.00000000      37.32963663       1.25645340
      30.60000000      90.00000000      45.00000000      37.32986954       1.25646124
      30.70000000      90.00000000      45.00000000      37.33010242       1.25646908
      30.80000000      90.00000000      45.00000000      37.33033529       1.25647692
      30.90000000      90.00000000      45.00000000      37.33056815       1.25648476
      31.00000000      90.00000000      45.00000000      37.33080098       1.25649259
      31.10000000      90.00000000      45.00000000      37.33103380       1.25650043
      31.20000000      90.00000000      45.00000000      37.33126660       1.25650827
      31.30000000      90.00000000      45.00000000      37.33149939       1.25651610
      31.40000000      90.00000000      45.00000000      37.33173216       1.25652394
      31.50000000      90.00000000      45.00000000      37.33196491       1.25653177
      31.60000000      90.00000000      45.00000000      37.33219764       1.25653960
      31.70000000      90.00000000      45.00000000      37.33243036       1.25654744
      31.80000000      90.00000000      45.00000000      37.33266306       1.25655527
      31.90000000      90.00000000      45.00000000      37.33289575       1.25656310
      32.00000000      90.00000000      45.00000000      37.33312841       1.25657093
      32.10000000      90.00000000      45.00000000      37.33336106       1.25657876
      32.20000000      90.00000000      45.00000000      37.33359370       1.25658659
      32.30000000      90.00000000      45.00000000      37.33382631       1.25659442
      32.40000000      90.00000000      45.00000000      37.33405891       1.25660225
      32.50000000      90.00000000      45.00000000      37.33429150       1.25661008
      32.60000000      90.00000000      45.00000000      37.33452406       1.25661791
      32.70000000      90.00000000      45.00000000      37.33475661       1.25662573
      32.80000000      90.00000000      45.00000000      37.33498915       1.25663356
      32.90000000      90.00000000      45.00000000      37.33522168       1.25664139
      33.00000000      90.00000000      45.00000000      37.33545420       1.25664921
      33.10000000      90.00000000      45.00000000      37.33568671       1.25665704
      33.20000000      90.00000000      45.00000000      37.33591920       1.25666486
      33.30000000      90.00000000      45.00000000      37.33615167       1.25667269
      33.40000000      90.00000000      45.00000000      37.33638413       1.25668051
      33.50000000      90.00000000      45.00000000      37.33661658       1.25668834
      33.60000000      90.00000000      45.00000000      37.33684900       1.25669616
      33.70000000      90.00000000      45.00000000      37.33708141       1.25670398
      33.80000000      90.00000000      45.00000000      37.33731380       1.25671180
      33.90000000      90.00000000      45.00000000      37.33754618       1.25671963
      34.00000000      90.00000000      45.00000000      37.33777854       1.25672745
      34.10000000      90.00000000      45.00000000      37.33801088       1.25673527
      34.20000000      90.00000000      45.00000000      37.33824321       1.25674309
      34.30000000      90.00000000      45.00000000      37.33847552       1.25675091
      34.40000000      90.00000000      45.00000000      37.33870781       1.25675872
      34.50000000      90.00000000      45.00000000      37.33894009       1.25676654
      34.60000000      90.00000000      45.00000000      37.33917235       1.25677436
      34.70000000      90.00000000      45.00000000      37.33940459       1.25678218
      34.80000000      90.00000000      45.00000000      37.33963682       1.25678999
      34.90000000      90.00000000      45.00000000      37.33986903       1.25679781
      35.00000000      90.00000000      45.00000000      37.34010123       1.25680562
      35.10000000      90.00000000      45.00000000      37.34033341       1.25681344
      35.20000000      90.00000000      45.00000000      37.34056557       1.25682125
      35.30000000      90.00000000      45.00000000      37.34079771       1.25682907
      35.40000000      90.00000000      45.00000000      37.34102984       1.25683688
      35.50000000      90.00000000      45.00000000      37.34126196       1.25684469
      35.60000000      90.00000000      45.00000000      37.34149405       1.25685250
      35.70000000      90.00000000      45.00000000      37.34172614       1.25686032
      35.80000000      90.00000000      45.00000000      37.34195820       1.25686813
      35.90000000      90.00000000      45.00000000      37.34219025       1.25687594
      36.00000000      90.00000000      45.00000000      37.34242228       1.25688375
      36.10000000      90.00000000      45.00000000      37.34265430       1.25689156
      36.20000000      90.00000000      45.00000000      37.34288630       1.25689937
      36.30000000      90.00000000      45.00000000      37.34311829       1.25690717
      36.40000000      90.00000000      45.00000000      37.34335026       1.25691498
      36.50000000      90.00000000      45.00000000      37.34358221       1.25692279
      36.60000000      90.00000000      45.00000000      37.34381414       1.25693059
      36.70000000      90.00000000      45.00000000      37.34404606       1.25693840
      36.80000000      90.00000000      45.00000000      37.34427797       1.25694621
      36.90000000      90.00000000      45.00000000      37.34451339       1.25695413
      37.00000000      90.00000000      45.00000000      37.34474519       1.25696193
      37.10000000      90.00000000      45.00000000      37.34497696       1.25696973
      37.20000000      90.00000000      45.00000000      37.34520872       1.25697753
      37.30000000      90.00000000      45.00000000      37.34544046       1.25698533
      37.40000000      90.00000000      45.00000000      37.34567218       1.25699313
      37.50000000      90.00000000      45.00000000      37.34590388       1.25700093
      37.60000000      90.00000000      45.00000000      37.34613557       1.25700873
      37.70000000      90.00000000      45.00000000      37.34636723       1.25701653
      37.80000000      90.00000000      45.00000000      37.34659888       1.25702432
      37.90000000      90.00000000      45.00000000      37.34683051       1.25703212
      38.00000000      90.00000000      45.00000000      37.34706212       1.25703992
      38.10000000      90.00000000      45.00000000      37.34729371       1.25704771
      38.20000000      90.00000000      45.00000000      37.34752529       1.25705551
      38.30000000      90.00000000      45.00000000      37.34775684       1.25706330
      38.40000000      90.00000000      45.00000000      37.34798838       1.25707109
      38.50000000      90.00000000      45.00000000      37.34821989       1.25707889
      38.60000000      90.00000000      45.00000000      37.34845139       1.25708668
      38.70000000      90.00000000      45.00000000      37.34868287       1.25709447
      38.80000000      90.00000000      45.00000000      37.34891433       1.25710226
      38.90000000      90.00000000      45.00000000      37.34914577       1.25711005
      39.00000000      90.00000000      45.00000000      37.34937720       1.25711784
      39.10000000      90.00000000      45.00000000      37.34960860       1.25712563
      39.20000000      90.00000000      45.00000000      37.34983999       1.25713341
      39.30000000      90.00000000      45.00000000      37.35007136       1.25714120
      39.40000000      90.00000000      45.00000000      37.35030271       1.25714899
      39.50000000      90.00000000      45.00000000      37.35053404       1.25715678
      39.60000000      90.00000000      45.00000000      37.35076535       1.25716456
      39.70000000      90.00000000      45.00000000      37.35099665       1.25717235
      39.80000000      90.00000000      45.00000000      37.35122793       1.25718013
      39.90000000      90.00000000      45.00000000      37.35145919       1.25718791
      40.00000000      90.00000000      45.00000000      37.35169043       1.25719570
