 # applied field (T), theta (degree), phi (degree), abs [muB/unitcell], abs [T]
       0.00000000       0.00000000       0.00000000      43.29964679       1.45739400
       0.10000000       0.16942944      45.00000000      43.29964615       1.45739398
       0.20000000       0.39510186      45.00000000      43.29964285       1.45739387
       0.30000000       0.56453154      45.00000000      43.29963903       1.45739374
       0.40000000       0.73396142      45.00000000      43.29963393       1.45739357
       0.50000000       0.95963475      45.00000000      43.29962404       1.45739324
       0.60000000       1.12906535      45.00000000      43.29961576       1.45739296
       0.70000000       1.29849635      45.00000000      43.29960621       1.45739264
       0.80000000       1.52417151      45.00000000      43.29958974       1.45739208
       0.90000000       1.69360370      45.00000000      43.29957703       1.45739166
       1.00000000       1.86303651      45.00000000      43.29956305       1.45739118
       1.10000000       2.08871441      45.00000000      43.29954003       1.45739041
       1.20000000       2.25814888      45.00000000      43.29952290       1.45738983
       1.30000000       2.42758416      45.00000000      43.29950451       1.45738921
       1.40000000       2.65326572      45.00000000      43.29947497       1.45738822
       1.50000000       2.82270314      45.00000000      43.29945346       1.45738750
       1.60000000       2.99214158      45.00000000      43.29943069       1.45738673
       1.70000000       3.21782771      45.00000000      43.29939470       1.45738552
       1.80000000       3.38726876      45.00000000      43.29936884       1.45738465
       1.90000000       3.61295864      45.00000000      43.29932827       1.45738328
       2.00000000       3.78240264      45.00000000      43.29929934       1.45738231
       2.10000000       3.95184801      45.00000000      43.29926918       1.45738129
       2.20000000       4.17754401      45.00000000      43.29922226       1.45737971
       2.30000000       4.34699280      45.00000000      43.29918907       1.45737860
       2.40000000       4.51644315      45.00000000      43.29915466       1.45737744
       2.50000000       4.74214618      45.00000000      43.29910147       1.45737565
       2.60000000       4.91160043      45.00000000      43.29906407       1.45737439
       2.70000000       5.08105645      45.00000000      43.29902549       1.45737309
       2.80000000       5.30676742      45.00000000      43.29896610       1.45737109
       2.90000000       5.47622782      45.00000000      43.29892458       1.45736969
       3.00000000       5.64569017      45.00000000      43.29888188       1.45736826
       3.10000000       5.87141000      45.00000000      43.29881641       1.45736605
       3.20000000       6.04087720      45.00000000      43.29877083       1.45736452
       3.30000000       6.21034657      45.00000000      43.29872410       1.45736295
       3.40000000       6.43607616      45.00000000      43.29865265       1.45736054
       3.50000000       6.60555085      45.00000000      43.29860309       1.45735887
       3.60000000       6.77502791      45.00000000      43.29855242       1.45735717
       3.70000000       7.00076816      45.00000000      43.29847511       1.45735457
       3.80000000       7.17025102      45.00000000      43.29842167       1.45735277
       3.90000000       7.33973644      45.00000000      43.29836715       1.45735093
       4.00000000       7.56548826      45.00000000      43.29828411       1.45734814
       4.10000000       7.73497995      45.00000000      43.29822689       1.45734621
       4.20000000       7.90447441      45.00000000      43.29816862       1.45734425
       4.30000000       8.13023871      45.00000000      43.29807999       1.45734127
       4.40000000       8.29973990      45.00000000      43.29801910       1.45733922
       4.50000000       8.46924406      45.00000000      43.29795718       1.45733713
       4.60000000       8.69502174      45.00000000      43.29786312       1.45733397
       4.70000000       8.86453310      45.00000000      43.29779867       1.45733180
       4.80000000       9.03404764      45.00000000      43.29773323       1.45732960
       4.90000000       9.25983960      45.00000000      43.29763389       1.45732625
       5.00000000       9.42936181      45.00000000      43.29756600       1.45732397
       5.10000000       9.59888739      45.00000000      43.29749716       1.45732165
       5.20000000       9.82469452      45.00000000      43.29739271       1.45731813
       5.30000000       9.99422824      45.00000000      43.29732151       1.45731574
       5.40000000      10.16376553      45.00000000      43.29724940       1.45731331
       5.50000000      10.38958874      45.00000000      43.29714003       1.45730963
       5.60000000      10.55913463      45.00000000      43.29706566       1.45730713
       5.70000000      10.72868430      45.00000000      43.29699041       1.45730459
       5.80000000      10.95452448      45.00000000      43.29687631       1.45730075
       5.90000000      11.12408321      45.00000000      43.29679890       1.45729815
       6.00000000      11.29364591      45.00000000      43.29672067       1.45729552
       6.10000000      11.46321263      45.00000000      43.29664163       1.45729285
       6.20000000      11.68907619      45.00000000      43.29652174       1.45728882
       6.30000000      11.85865259      45.00000000      43.29644068       1.45728609
       6.40000000      12.02823320      45.00000000      43.29635885       1.45728334
       6.50000000      12.25411578      45.00000000      43.29623470       1.45727916
       6.60000000      12.42370654      45.00000000      43.29615096       1.45727634
       6.70000000      12.59330171      45.00000000      43.29606650       1.45727350
       6.80000000      12.81920419      45.00000000      43.29593831       1.45726918
       6.90000000      12.98880996      45.00000000      43.29585205       1.45726628
       7.00000000      13.15842035      45.00000000      43.29576513       1.45726335
       7.10000000      13.38434362      45.00000000      43.29563313       1.45725891
       7.20000000      13.55396507      45.00000000      43.29554454       1.45725593
       7.30000000      13.72359132      45.00000000      43.29545533       1.45725293
       7.40000000      13.94953627      45.00000000      43.29531975       1.45724836
       7.50000000      14.11917404      45.00000000      43.29522899       1.45724531
       7.60000000      14.28881681      45.00000000      43.29513768       1.45724223
       7.70000000      14.51478431      45.00000000      43.29499877       1.45723756
       7.80000000      14.68443905      45.00000000      43.29490604       1.45723444
       7.90000000      14.85409900      45.00000000      43.29481280       1.45723130
       8.00000000      15.02376420      45.00000000      43.29471907       1.45722814
       8.10000000      15.24976230      45.00000000      43.29457630       1.45722334
       8.20000000      15.41944007      45.00000000      43.29448133       1.45722014
       8.30000000      15.58912328      45.00000000      43.29438593       1.45721693
       8.40000000      15.81514594      45.00000000      43.29424043       1.45721203
       8.50000000      15.98484217      45.00000000      43.29414392       1.45720879
       8.60000000      16.15454405      45.00000000      43.29404706       1.45720553
       8.70000000      16.38059213      45.00000000      43.29389909       1.45720055
       8.80000000      16.55030748      45.00000000      43.29380126       1.45719725
       8.90000000      16.72002865      45.00000000      43.29370312       1.45719395
       9.00000000      16.88975572      45.00000000      43.29360470       1.45719064
       9.10000000      17.11583813      45.00000000      43.29345403       1.45718557
       9.20000000      17.28557925      45.00000000      43.29335483       1.45718223
       9.30000000      17.45532645      45.00000000      43.29325542       1.45717888
       9.40000000      17.68143628      45.00000000      43.29310294       1.45717375
       9.50000000      17.85119797      45.00000000      43.29300291       1.45717038
       9.60000000      18.02096594      45.00000000      43.29290271       1.45716701
       9.70000000      18.24710404      45.00000000      43.29274873       1.45716183
       9.80000000      18.41688696      45.00000000      43.29264807       1.45715844
       9.90000000      18.58667633      45.00000000      43.29254732       1.45715505
      10.00000000      18.75647222      45.00000000      43.29244650       1.45715165
      10.10000000      18.98264831      45.00000000      43.29229108       1.45714642
      10.20000000      19.15245972      45.00000000      43.29219001       1.45714302
      10.30000000      19.32227784      45.00000000      43.29208893       1.45713962
      10.40000000      19.54848416      45.00000000      43.29193271       1.45713436
      10.50000000      19.71831823      45.00000000      43.29183153       1.45713095
      10.60000000      19.88815920      45.00000000      43.29173043       1.45712755
      10.70000000      20.05800711      45.00000000      43.29162940       1.45712415
      10.80000000      20.28425396      45.00000000      43.29147269       1.45711888
      10.90000000      20.45411840      45.00000000      43.29137179       1.45711548
      11.00000000      20.62398997      45.00000000      43.29127105       1.45711209
      11.10000000      20.79386873      45.00000000      43.29117049       1.45710871
      11.20000000      21.02015753      45.00000000      43.29101382       1.45710343
      11.30000000      21.19005338      45.00000000      43.29091360       1.45710006
      11.40000000      21.35995661      45.00000000      43.29081364       1.45709669
      11.50000000      21.58627866      45.00000000      43.29065734       1.45709143
      11.60000000      21.75619941      45.00000000      43.29055789       1.45708809
      11.70000000      21.92612772      45.00000000      43.29045877       1.45708475
      11.80000000      22.09606363      45.00000000      43.29036000       1.45708143
      11.90000000      22.32243011      45.00000000      43.29020474       1.45707620
      12.00000000      22.49238412      45.00000000      43.29010671       1.45707290
      12.10000000      22.66234591      45.00000000      43.29000910       1.45706961
      12.20000000      22.83231556      45.00000000      43.28991195       1.45706634
      12.30000000      23.05872786      45.00000000      43.28975831       1.45706117
      12.40000000      23.22871614      45.00000000      43.28966213       1.45705794
      12.50000000      23.39871245      45.00000000      43.28956647       1.45705472
      12.60000000      23.56871685      45.00000000      43.28947136       1.45705152
      12.70000000      23.79517635      45.00000000      43.28931993       1.45704642
      12.80000000      23.96519993      45.00000000      43.28922603       1.45704326
      12.90000000      24.13523178      45.00000000      43.28913275       1.45704012
      13.00000000      24.30527194      45.00000000      43.28904012       1.45703700
      13.10000000      24.53178002      45.00000000      43.28889150       1.45703200
      13.20000000      24.70183992      45.00000000      43.28880032       1.45702893
      13.30000000      24.87190831      45.00000000      43.28870986       1.45702588
      13.40000000      25.04198525      45.00000000      43.28862015       1.45702286
      13.50000000      25.26854327      45.00000000      43.28847493       1.45701798
      13.60000000      25.43864049      45.00000000      43.28838691       1.45701501
      13.70000000      25.60874643      45.00000000      43.28829972       1.45701208
      13.80000000      25.77886115      45.00000000      43.28821338       1.45700917
      13.90000000      26.00547047      45.00000000      43.28807218       1.45700442
      14.00000000      26.17560600      45.00000000      43.28798777       1.45700158
      14.10000000      26.34575049      45.00000000      43.28790429       1.45699877
      14.20000000      26.51590398      45.00000000      43.28782177       1.45699599
      14.30000000      26.68606653      45.00000000      43.28774023       1.45699325
      14.40000000      26.91274078      45.00000000      43.28760486       1.45698869
      14.50000000      27.08292481      45.00000000      43.28752555       1.45698602
      14.60000000      27.25311806      45.00000000      43.28744730       1.45698339
      14.70000000      27.42332060      45.00000000      43.28737013       1.45698079
      14.80000000      27.65004913      45.00000000      43.28724015       1.45697642
      14.90000000      27.82027367      45.00000000      43.28716547       1.45697390
      15.00000000      27.99050766      45.00000000      43.28709195       1.45697143
      15.10000000      28.16075116      45.00000000      43.28701961       1.45696899
      15.20000000      28.33100422      45.00000000      43.28694849       1.45696660
      15.30000000      28.55780133      45.00000000      43.28682605       1.45696248
      15.40000000      28.72807704      45.00000000      43.28675771       1.45696018
      15.50000000      28.89836247      45.00000000      43.28669067       1.45695792
      15.60000000      29.06865769      45.00000000      43.28662495       1.45695571
      15.70000000      29.23896274      45.00000000      43.28656056       1.45695354
      15.80000000      29.46583040      45.00000000      43.28644660       1.45694971
      15.90000000      29.63615874      45.00000000      43.28638531       1.45694764
      16.00000000      29.80649707      45.00000000      43.28632544       1.45694563
      16.10000000      29.97684546      45.00000000      43.28626702       1.45694366
      16.20000000      30.14720394      45.00000000      43.28621007       1.45694175
      16.30000000      30.37414413      45.00000000      43.28610554       1.45693823
      16.40000000      30.54452654      45.00000000      43.28605199       1.45693643
      16.50000000      30.71491922      45.00000000      43.28599999       1.45693467
      16.60000000      30.88532221      45.00000000      43.28594957       1.45693298
      16.70000000      31.05573558      45.00000000      43.28590074       1.45693133
      16.80000000      31.28275023      45.00000000      43.28580659       1.45692817
      16.90000000      31.45318815      45.00000000      43.28576147       1.45692665
      17.00000000      31.62363660      45.00000000      43.28571804       1.45692518
      17.10000000      31.79409564      45.00000000      43.28567631       1.45692378
      17.20000000      31.96456531      45.00000000      43.28563630       1.45692243
      17.30000000      32.13504566      45.00000000      43.28559805       1.45692115
      17.40000000      32.36215122      45.00000000      43.28551748       1.45691843
      17.50000000      32.53265687      45.00000000      43.28548330       1.45691728
      17.60000000      32.70317336      45.00000000      43.28545095       1.45691619
      17.70000000      32.87370075      45.00000000      43.28542045       1.45691517
      17.80000000      33.04423908      45.00000000      43.28539184       1.45691421
      17.90000000      33.21478841      45.00000000      43.28536513       1.45691331
      18.00000000      33.44198758      45.00000000      43.28529946       1.45691110
      18.10000000      33.61256294      45.00000000      43.28527718       1.45691035
      18.20000000      33.78314945      45.00000000      43.28525688       1.45690966
      18.30000000      33.95374717      45.00000000      43.28523859       1.45690905
      18.40000000      34.12435615      45.00000000      43.28522232       1.45690850
      18.50000000      34.29497642      45.00000000      43.28520811       1.45690802
      18.60000000      34.52227189      45.00000000      43.28515867       1.45690636
      18.70000000      34.69291893      45.00000000      43.28514924       1.45690604
      18.80000000      34.86357743      45.00000000      43.28514194       1.45690579
      18.90000000      35.03424744      45.00000000      43.28513680       1.45690562
      19.00000000      35.20492902      45.00000000      43.28513384       1.45690552
      19.10000000      35.37562221      45.00000000      43.28513307       1.45690550
      19.20000000      35.54632706      45.00000000      43.28513454       1.45690555
      19.30000000      35.71704362      45.00000000      43.28513825       1.45690567
      19.40000000      35.94446976      45.00000000      43.28511216       1.45690479
      19.50000000      36.11521402      45.00000000      43.28512111       1.45690509
      19.60000000      36.28597016      45.00000000      43.28513238       1.45690547
      19.70000000      36.45673821      45.00000000      43.28514599       1.45690593
      19.80000000      36.62751823      45.00000000      43.28516198       1.45690647
      19.90000000      36.79831026      45.00000000      43.28518036       1.45690709
      20.00000000      36.96911435      45.00000000      43.28520115       1.45690779
      20.10000000      37.13993054      45.00000000      43.28522438       1.45690857
      20.20000000      37.36749195      45.00000000      43.28522384       1.45690855
      20.30000000      37.53833681      45.00000000      43.28525275       1.45690952
      20.40000000      37.70919393      45.00000000      43.28528418       1.45691058
      20.50000000      37.88006338      45.00000000      43.28531813       1.45691172
      20.60000000      38.05094519      45.00000000      43.28535464       1.45691295
      20.70000000      38.22183942      45.00000000      43.28539373       1.45691427
      20.80000000      38.39274611      45.00000000      43.28543541       1.45691567
      20.90000000      38.56366531      45.00000000      43.28547972       1.45691716
      21.00000000      38.73459707      45.00000000      43.28552666       1.45691874
      21.10000000      38.90554143      45.00000000      43.28557627       1.45692041
      21.20000000      39.07649845      45.00000000      43.28562856       1.45692217
      21.30000000      39.30425105      45.00000000      43.28566621       1.45692344
      21.40000000      39.47523803      45.00000000      43.28572477       1.45692541
      21.50000000      39.64623781      45.00000000      43.28578608       1.45692747
      21.60000000      39.81725047      45.00000000      43.28585017       1.45692963
      21.70000000      39.98827603      45.00000000      43.28591705       1.45693188
      21.80000000      40.15931456      45.00000000      43.28598674       1.45693423
      21.90000000      40.33036610      45.00000000      43.28605928       1.45693667
      22.00000000      40.50143069      45.00000000      43.28613467       1.45693921
      22.10000000      40.67250840      45.00000000      43.28621294       1.45694184
      22.20000000      40.84359926      45.00000000      43.28629410       1.45694457
      22.30000000      41.01470332      45.00000000      43.28637819       1.45694740
      22.40000000      41.18582064      45.00000000      43.28646521       1.45695033
      22.50000000      41.35695126      45.00000000      43.28655518       1.45695336
      22.60000000      41.52809523      45.00000000      43.28664813       1.45695649
      22.70000000      41.69925261      45.00000000      43.28674408       1.45695972
      22.80000000      41.87042343      45.00000000      43.28684305       1.45696305
      22.90000000      42.04160776      45.00000000      43.28694505       1.45696648
      23.00000000      42.26966915      45.00000000      43.28704837       1.45696996
      23.10000000      42.44088544      45.00000000      43.28715747       1.45697363
      23.20000000      42.61211539      45.00000000      43.28726967       1.45697741
      23.30000000      42.78335906      45.00000000      43.28738498       1.45698129
      23.40000000      42.95461650      45.00000000      43.28750343       1.45698528
      23.50000000      43.12588776      45.00000000      43.28762504       1.45698937
      23.60000000      43.29717288      45.00000000      43.28774981       1.45699357
      23.70000000      43.46847193      45.00000000      43.28787778       1.45699788
      23.80000000      43.63978494      45.00000000      43.28800896       1.45700229
      23.90000000      43.81111198      45.00000000      43.28814337       1.45700682
      24.00000000      43.98245308      45.00000000      43.28828102       1.45701145
      24.10000000      44.15380831      45.00000000      43.28842193       1.45701619
      24.20000000      44.32517772      45.00000000      43.28856612       1.45702105
      24.30000000      44.49656135      45.00000000      43.28871361       1.45702601
      24.40000000      44.66795925      45.00000000      43.28886442       1.45703109
      24.50000000      44.83937149      45.00000000      43.28901855       1.45703627
      24.60000000      45.01079812      45.00000000      43.28917603       1.45704158
      24.70000000      45.18223917      45.00000000      43.28933688       1.45704699
      24.80000000      45.35369472      45.00000000      43.28950111       1.45705252
      24.90000000      45.52516481      45.00000000      43.28966873       1.45705816
      25.00000000      45.69664949      45.00000000      43.28983977       1.45706392
      25.10000000      45.86814882      45.00000000      43.29001424       1.45706979
      25.20000000      46.03966285      45.00000000      43.29019215       1.45707578
      25.30000000      46.21119164      45.00000000      43.29037353       1.45708188
      25.40000000      46.32575096      45.00000000      43.29053482       1.45708731
      25.50000000      46.49730415      45.00000000      43.29072202       1.45709361
      25.60000000      46.66887224      45.00000000      43.29091273       1.45710003
      25.70000000      46.84045528      45.00000000      43.29110696       1.45710657
      25.80000000      47.01205334      45.00000000      43.29130471       1.45711322
      25.90000000      47.18366646      45.00000000      43.29150601       1.45712000
      26.00000000      47.35529470      45.00000000      43.29171087       1.45712689
      26.10000000      47.52693812      45.00000000      43.29191930       1.45713391
      26.20000000      47.69859678      45.00000000      43.29213133       1.45714105
      26.30000000      47.87027074      45.00000000      43.29234695       1.45714830
      26.40000000      48.04196004      45.00000000      43.29256619       1.45715568
      26.50000000      48.21366475      45.00000000      43.29278907       1.45716318
      26.60000000      48.38538493      45.00000000      43.29301558       1.45717081
      26.70000000      48.55712063      45.00000000      43.29324575       1.45717856
      26.80000000      48.72887192      45.00000000      43.29347960       1.45718643
      26.90000000      48.90063885      45.00000000      43.29371712       1.45719442
      27.00000000      49.01535222      45.00000000      43.29391626       1.45720112
      27.10000000      49.18714500      45.00000000      43.29415995       1.45720933
      27.20000000      49.35895359      45.00000000      43.29440736       1.45721765
      27.30000000      49.53077804      45.00000000      43.29465850       1.45722611
      27.40000000      49.70261841      45.00000000      43.29491337       1.45723468
      27.50000000      49.87447477      45.00000000      43.29517200       1.45724339
      27.60000000      50.04634718      45.00000000      43.29543438       1.45725222
      27.70000000      50.21823569      45.00000000      43.29570053       1.45726118
      27.80000000      50.39014038      45.00000000      43.29597047       1.45727026
      27.90000000      50.56206130      45.00000000      43.29624420       1.45727948
      28.00000000      50.67687417      45.00000000      43.29646756       1.45728700
      28.10000000      50.84882192      45.00000000      43.29674763       1.45729642
      28.20000000      51.02078607      45.00000000      43.29703152       1.45730598
      28.30000000      51.19276670      45.00000000      43.29731924       1.45731566
      28.40000000      51.36476386      45.00000000      43.29761079       1.45732548
      28.50000000      51.53677763      45.00000000      43.29790620       1.45733542
      28.60000000      51.70880806      45.00000000      43.29820546       1.45734549
      28.70000000      51.82369162      45.00000000      43.29844581       1.45735358
      28.80000000      51.99574959      45.00000000      43.29875150       1.45736387
      28.90000000      52.16782441      45.00000000      43.29906107       1.45737429
      29.00000000      52.33991614      45.00000000      43.29937452       1.45738484
      29.10000000      52.51202486      45.00000000      43.29969186       1.45739552
      29.20000000      52.68415062      45.00000000      43.30001311       1.45740633
      29.30000000      52.85629351      45.00000000      43.30033826       1.45741728
      29.40000000      52.97124964      45.00000000      43.30059578       1.45742594
      29.50000000      53.14342082      45.00000000      43.30092744       1.45743711
      29.60000000      53.31560931      45.00000000      43.30126301       1.45744840
      29.70000000      53.48781517      45.00000000      43.30160251       1.45745983
      29.80000000      53.66003849      45.00000000      43.30194595       1.45747139
      29.90000000      53.83227934      45.00000000      43.30229332       1.45748308
      30.00000000      53.94729865      45.00000000      43.30256554       1.45749224
      30.10000000      54.11956845      45.00000000      43.30291946       1.45750416
      30.20000000      54.29185597      45.00000000      43.30327732       1.45751620
      30.30000000      54.46416128      45.00000000      43.30363914       1.45752838
      30.40000000      54.63648447      45.00000000      43.30400492       1.45754069
      30.50000000      54.75155686      45.00000000      43.30428926       1.45755026
      30.60000000      54.92390957      45.00000000      43.30466160       1.45756279
      30.70000000      55.09628035      45.00000000      43.30503790       1.45757546
      30.80000000      55.26866929      45.00000000      43.30541816       1.45758826
      30.90000000      55.44107646      45.00000000      43.30580239       1.45760119
      31.00000000      55.55620295      45.00000000      43.30609886       1.45761117
      31.10000000      55.72864023      45.00000000      43.30648965       1.45762432
      31.20000000      55.90109594      45.00000000      43.30688441       1.45763761
      31.30000000      56.07357018      45.00000000      43.30728314       1.45765103
      31.40000000      56.18873987      45.00000000      43.30758911       1.45766133
      31.50000000      56.36124469      45.00000000      43.30799440       1.45767497
      31.60000000      56.53376824      45.00000000      43.30840365       1.45768874
      31.70000000      56.70631060      45.00000000      43.30881686       1.45770265
      31.80000000      56.87887187      45.00000000      43.30923403       1.45771669
      31.90000000      56.99409761      45.00000000      43.30955206       1.45772740
      32.00000000      57.16669008      45.00000000      43.30997576       1.45774166
      32.10000000      57.33930167      45.00000000      43.31040341       1.45775605
      32.20000000      57.51193247      45.00000000      43.31083501       1.45777058
      32.30000000      57.62720296      45.00000000      43.31116244       1.45778160
      32.40000000      57.79986546      45.00000000      43.31160054       1.45779635
      32.50000000      57.97254740      45.00000000      43.31204256       1.45781122
      32.60000000      58.14524885      45.00000000      43.31248851       1.45782623
      32.70000000      58.26056481      45.00000000      43.31282528       1.45783757
      32.80000000      58.43329848      45.00000000      43.31327768       1.45785280
      32.90000000      58.60605190      45.00000000      43.31373399       1.45786816
      33.00000000      58.77882516      45.00000000      43.31419419       1.45788364
      33.10000000      58.89418731      45.00000000      43.31454020       1.45789529
      33.20000000      59.06699331      45.00000000      43.31500680       1.45791100
      33.30000000      59.23981938      45.00000000      43.31547727       1.45792683
      33.40000000      59.41266562      45.00000000      43.31595159       1.45794280
      33.50000000      59.52807469      45.00000000      43.31630673       1.45795475
      33.60000000      59.70095420      45.00000000      43.31678738       1.45797093
      33.70000000      59.87385411      45.00000000      43.31727184       1.45798723
      33.80000000      59.98929769      45.00000000      43.31763353       1.45799941
      33.90000000      60.16223127      45.00000000      43.31812426       1.45801592
      34.00000000      60.33518549      45.00000000      43.31861877       1.45803257
      34.10000000      60.50816044      45.00000000      43.31911705       1.45804934
      34.20000000      60.62365224      45.00000000      43.31948762       1.45806181
      34.30000000      60.79666141      45.00000000      43.31999206       1.45807879
      34.40000000      60.96969155      45.00000000      43.32050022       1.45809590
      34.50000000      61.08521880      45.00000000      43.32087713       1.45810858
      34.60000000      61.25828356      45.00000000      43.32139137       1.45812589
      34.70000000      61.43136954      45.00000000      43.32190927       1.45814332
      34.80000000      61.60447683      45.00000000      43.32243082       1.45816088
      34.90000000      61.72005362      45.00000000      43.32281630       1.45817385
      35.00000000      61.89319609      45.00000000      43.32334379       1.45819160
      35.10000000      62.06636011      45.00000000      43.32387487       1.45820948
      35.20000000      62.18197331      45.00000000      43.32426642       1.45822266
      35.30000000      62.35517290      45.00000000      43.32480333       1.45824073
      35.40000000      62.52839430      45.00000000      43.32534377       1.45825892
      35.50000000      62.64404431      45.00000000      43.32574126       1.45827230
      35.60000000      62.81730168      45.00000000      43.32628741       1.45829068
      35.70000000      62.99058110      45.00000000      43.32683700       1.45830918
      35.80000000      63.16388267      45.00000000      43.32739001       1.45832779
      35.90000000      63.27958411      45.00000000      43.32779547       1.45834144
      36.00000000      63.45292220      45.00000000      43.32835400       1.45836024
      36.10000000      63.62628269      45.00000000      43.32891587       1.45837915
      36.20000000      63.74202190      45.00000000      43.32932691       1.45839299
      36.30000000      63.91541929      45.00000000      43.32989416       1.45841208
      36.40000000      64.08883933      45.00000000      43.33046464       1.45843128
      36.50000000      64.20461670      45.00000000      43.33088110       1.45844530
      36.60000000      64.37807404      45.00000000      43.33145680       1.45846468
      36.70000000      64.55155425      45.00000000      43.33203565       1.45848416
      36.80000000      64.72505744      45.00000000      43.33261759       1.45850375
      36.90000000      64.84088807      45.00000000      43.33304121       1.45851800
      37.00000000      65.01442909      45.00000000      43.33362813       1.45853776
      37.10000000      65.18799331      45.00000000      43.33421804       1.45855761
      37.20000000      65.30386301      45.00000000      43.33464660       1.45857204
      37.30000000      65.47746544      45.00000000      43.33524128       1.45859205
      37.40000000      65.65109130      45.00000000      43.33583884       1.45861217
      37.50000000      65.76700043      45.00000000      43.33627212       1.45862675
      37.60000000      65.94066486      45.00000000      43.33687424       1.45864702
      37.70000000      66.11435294      45.00000000      43.33747911       1.45866738
      37.80000000      66.28806476      45.00000000      43.33808667       1.45868783
      37.90000000      66.40402886      45.00000000      43.33852608       1.45870262
      38.00000000      66.57777973      45.00000000      43.33913789       1.45872321
      38.10000000      66.75155455      45.00000000      43.33975225       1.45874389
      38.20000000      66.86755890      45.00000000      43.34019578       1.45875881
      38.30000000      67.04137311      45.00000000      43.34081415       1.45877963
      38.40000000      67.21521146      45.00000000      43.34143493       1.45880052
      38.50000000      67.38907404      45.00000000      43.34205804       1.45882150
      38.60000000      67.50513443      45.00000000      43.34250682       1.45883660
      38.70000000      67.67903683      45.00000000      43.34313357       1.45885770
      38.80000000      67.85296363      45.00000000      43.34376249       1.45887886
      38.90000000      67.96906499      45.00000000      43.34421471       1.45889409
      39.00000000      68.14303189      45.00000000      43.34484699       1.45891537
      39.10000000      68.31702338      45.00000000      43.34548127       1.45893672
      39.20000000      68.49103952      45.00000000      43.34611748       1.45895813
      39.30000000      68.60719782      45.00000000      43.34657392       1.45897349
      39.40000000      68.78125442      45.00000000      43.34721306       1.45899500
      39.50000000      68.95533582      45.00000000      43.34785395       1.45901658
      39.60000000      69.12944208      45.00000000      43.34849650       1.45903820
      39.70000000      69.24565775      45.00000000      43.34895652       1.45905369
      39.80000000      69.41980478      45.00000000      43.34960154       1.45907540
      39.90000000      69.59397679      45.00000000      43.35024803       1.45909716
      40.00000000      69.76817383      45.00000000      43.35089590       1.45911896
