 # applied field (T), theta (degree), phi (degree), abs for RE 3-4
     0.00000     0.00000     0.00000     3.73893     0.00000     0.00000     3.73893
     0.10000     0.30154   360.00000     3.73889     0.34612   360.00000     3.73891
     0.20000     0.60307   360.00000     3.73877     0.69225   360.00000     3.73888
     0.30000     0.90463   360.00000     3.73858     1.03839   360.00000     3.73883
     0.40000     1.24895   360.00000     3.73828     1.43360   360.00000     3.73874
     0.50000     1.55059   360.00000     3.73792     1.77979   360.00000     3.73864
     0.60000     1.85229   360.00000     3.73750     2.12603   360.00000     3.73851
     0.70000     2.15406   360.00000     3.73699     2.47231   360.00000     3.73837
     0.80000     2.45591   360.00000     3.73642     2.81864   360.00000     3.73820
     0.90000     2.75785   360.00000     3.73576     3.16504   360.00000     3.73802
     1.00000     3.10268   360.00000     3.73492     3.56059   360.00000     3.73777
     1.10000     3.40485   360.00000     3.73411     3.90713   360.00000     3.73754
     1.20000     3.70714   360.00000     3.73322     4.25376   360.00000     3.73728
     1.30000     4.00957   360.00000     3.73225     4.60048   360.00000     3.73701
     1.40000     4.31214   360.00000     3.73121     4.94730   360.00000     3.73671
     1.50000     4.61487   360.00000     3.73009     5.29422   360.00000     3.73639
     1.60000     4.96070   360.00000     3.72873     5.69043   360.00000     3.73599
     1.70000     5.26381   360.00000     3.72745     6.03760   360.00000     3.73562
     1.80000     5.56711   360.00000     3.72610     6.38490   360.00000     3.73523
     1.90000     5.87062   360.00000     3.72467     6.73234   360.00000     3.73482
     2.00000     6.17434   360.00000     3.72317     7.07992   360.00000     3.73439
     2.10000     6.47829   360.00000     3.72160     7.42764   360.00000     3.73394
     2.20000     6.82560   360.00000     3.71971     7.82484   360.00000     3.73339
     2.30000     7.13008   360.00000     3.71798     8.17291   360.00000     3.73289
     2.40000     7.43483   360.00000     3.71618     8.52116   360.00000     3.73237
     2.50000     7.73985   360.00000     3.71430     8.86959   360.00000     3.73183
     2.60000     8.08844   360.00000     3.71206     9.26762   360.00000     3.73118
     2.70000     8.39409   360.00000     3.71003     9.61647   360.00000     3.73059
     2.80000     8.70006   360.00000     3.70792     9.96552   360.00000     3.72998
     2.90000     9.00635   360.00000     3.70574    10.31478   360.00000     3.72935
     3.00000     9.35645   360.00000     3.70316    10.71380   360.00000     3.72860
     3.10000     9.66348   360.00000     3.70083    11.06354   360.00000     3.72792
     3.20000     9.97088   360.00000     3.69843    11.41351   360.00000     3.72722
     3.30000    10.27865   360.00000     3.69595    11.76373   360.00000     3.72650
     3.40000    10.63051   360.00000     3.69304    12.16389   360.00000     3.72565
     3.50000    10.93913   360.00000     3.69041    12.51465   360.00000     3.72488
     3.60000    11.24816   360.00000     3.68771    12.86568   360.00000     3.72410
     3.70000    11.60151   360.00000     3.68455    13.26680   360.00000     3.72317
     3.80000    11.91148   360.00000     3.68170    13.61843   360.00000     3.72234
     3.90000    12.22190   360.00000     3.67879    13.97035   360.00000     3.72149
     4.00000    12.57689   360.00000     3.67537    14.37251   360.00000     3.72048
     4.10000    12.88834   360.00000     3.67231    14.72507   360.00000     3.71958
     4.20000    13.20028   360.00000     3.66919    15.07796   360.00000     3.71867
     4.30000    13.55705   360.00000     3.66553    15.48125   360.00000     3.71759
     4.40000    13.87011   360.00000     3.66226    15.83483   360.00000     3.71662
     4.50000    14.18370   360.00000     3.65892    16.18875   360.00000     3.71564
     4.60000    14.54241   360.00000     3.65503    16.59325   360.00000     3.71449
     4.70000    14.85721   360.00000     3.65155    16.94792   360.00000     3.71346
     4.80000    15.21733   360.00000     3.64750    17.35331   360.00000     3.71225
     4.90000    15.53340   360.00000     3.64389    17.70877   360.00000     3.71118
     5.00000    15.89501   360.00000     3.63969    18.11507   360.00000     3.70993
     5.10000    16.21241   360.00000     3.63594    18.47135   360.00000     3.70881
     5.20000    16.57558   360.00000     3.63158    18.87862   360.00000     3.70751
     5.30000    16.89438   360.00000     3.62770    19.23575   360.00000     3.70635
     5.40000    17.25919   360.00000     3.62320    19.64402   360.00000     3.70499
     5.50000    17.57945   360.00000     3.61919    20.00205   360.00000     3.70379
     5.60000    17.94599   360.00000     3.61454    20.41136   360.00000     3.70239
     5.70000    18.26780   360.00000     3.61041    20.77031   360.00000     3.70114
     5.80000    18.63613   360.00000     3.60562    21.18070   360.00000     3.69969
     5.90000    19.00546   360.00000     3.60076    21.59169   360.00000     3.69821
     6.00000    19.32977   360.00000     3.59645    21.95214   360.00000     3.69690
     6.10000    19.70103   360.00000     3.59145    22.36427   360.00000     3.69538
     6.20000    20.07336   360.00000     3.58638    22.77703   360.00000     3.69383
     6.30000    20.40035   360.00000     3.58189    23.13905   360.00000     3.69245
     6.40000    20.77474   360.00000     3.57670    23.55302   360.00000     3.69085
     6.50000    21.15027   360.00000     3.57144    23.96765   360.00000     3.68923
     6.60000    21.48013   360.00000     3.56679    24.33134   360.00000     3.68779
     6.70000    21.85786   360.00000     3.56141    24.74724   360.00000     3.68612
     6.80000    22.23681   360.00000     3.55597    25.16383   360.00000     3.68443
     6.90000    22.61700   360.00000     3.55047    25.58113   360.00000     3.68271
     7.00000    22.99846   360.00000     3.54492    25.99915   360.00000     3.68097
     7.10000    23.38121   360.00000     3.53930    26.41791   360.00000     3.67920
     7.20000    23.71752   360.00000     3.53435    26.78525   360.00000     3.67764
     7.30000    24.10278   360.00000     3.52864    27.20540   360.00000     3.67583
     7.40000    24.48941   360.00000     3.52287    27.62632   360.00000     3.67399
     7.50000    24.87745   360.00000     3.51706    28.04801   360.00000     3.67213
     7.60000    25.26692   360.00000     3.51120    28.47049   360.00000     3.67025
     7.70000    25.65785   360.00000     3.50529    28.89376   360.00000     3.66835
     7.80000    26.05027   360.00000     3.49934    29.31785   360.00000     3.66642
     7.90000    26.49326   360.00000     3.49260    29.79561   360.00000     3.66422
     8.00000    26.88895   360.00000     3.48656    30.22146   360.00000     3.66225
     8.10000    27.28622   360.00000     3.48049    30.64816   360.00000     3.66026
     8.20000    27.68511   360.00000     3.47438    31.07571   360.00000     3.65824
     8.30000    28.08564   360.00000     3.46824    31.50414   360.00000     3.65620
     8.40000    28.53793   360.00000     3.46130    31.98685   360.00000     3.65388
     8.50000    28.94206   360.00000     3.45510    32.41716   360.00000     3.65180
     8.60000    29.34792   360.00000     3.44887    32.84838   360.00000     3.64970
     8.70000    29.80633   360.00000     3.44184    33.33428   360.00000     3.64730
     8.80000    30.21599   360.00000     3.43557    33.76746   360.00000     3.64516
     8.90000    30.67874   360.00000     3.42849    34.25560   360.00000     3.64272
     9.00000    31.09234   360.00000     3.42218    34.69079   360.00000     3.64054
     9.10000    31.55960   360.00000     3.41507    35.18123   360.00000     3.63805
     9.20000    31.97727   360.00000     3.40875    35.61848   360.00000     3.63583
     9.30000    32.44919   360.00000     3.40162    36.11127   360.00000     3.63330
     9.40000    32.92363   360.00000     3.39448    36.60532   360.00000     3.63075
     9.50000    33.34780   360.00000     3.38815    37.04583   360.00000     3.62847
     9.60000    33.82713   360.00000     3.38102    37.54231   360.00000     3.62589
     9.70000    34.30912   360.00000     3.37389    38.04011   360.00000     3.62328
     9.80000    34.79379   360.00000     3.36678    38.53923   360.00000     3.62065
     9.90000    35.28120   360.00000     3.35968    39.03969   360.00000     3.61800
    10.00000    35.77137   360.00000     3.35261    39.54151   360.00000     3.61534
    10.10000    36.26435   360.00000     3.34555    40.04469   360.00000     3.61266
    10.20000    36.76017   360.00000     3.33853    40.54925   360.00000     3.60996
    10.30000    37.31418   360.00000     3.33076    41.11126   360.00000     3.60694
    10.40000    37.81612   360.00000     3.32381    41.61878   360.00000     3.60420
    10.50000    38.32101   360.00000     3.31690    42.12773   360.00000     3.60146
    10.60000    38.88521   360.00000     3.30928    42.69465   360.00000     3.59839
    10.70000    39.45314   360.00000     3.30172    43.26337   360.00000     3.59530
    10.80000    39.96774   360.00000     3.29497    43.77698   360.00000     3.59251
    10.90000    40.54283   360.00000     3.28755    44.34915   360.00000     3.58940
    11.00000    41.12174   360.00000     3.28020    44.92315   360.00000     3.58627
    11.10000    41.70450   360.00000     3.27294    45.49900   360.00000     3.58313
    11.20000    42.29113   360.00000     3.26578    46.07672   360.00000     3.57998
    11.30000    42.88165   360.00000     3.25871    46.65631   360.00000     3.57682
    11.40000    43.47607   360.00000     3.25175    47.23779   360.00000     3.57366
    11.50000    44.07441   360.00000     3.24489    47.82118   360.00000     3.57049
    11.60000    44.73687   360.00000     3.23748    48.46491   360.00000     3.56699
    11.70000    45.40408   360.00000     3.23022    49.11097   360.00000     3.56349
    11.80000    46.01497   360.00000     3.22376    49.70052   360.00000     3.56032
    11.90000    46.69123   360.00000     3.21680    50.35107   360.00000     3.55681
    12.00000    47.37220   360.00000     3.21001    51.00398   360.00000     3.55331
    12.10000    48.05786   360.00000     3.20339    51.65927   360.00000     3.54982
    12.20000    48.81093   360.00000     3.19637    52.37667   360.00000     3.54601
    12.30000    49.50627   360.00000     3.19014    53.03695   360.00000     3.54253
    12.40000    50.26979   360.00000     3.18355    53.75981   360.00000     3.53874
    12.50000    51.03866   360.00000     3.17720    54.48552   360.00000     3.53497
    12.60000    51.81279   360.00000     3.17109    55.21408   360.00000     3.53121
    12.70000    52.59208   360.00000     3.16523    55.94550   360.00000     3.52748
    12.80000    53.44183   360.00000     3.15916    56.74094   360.00000     3.52346
    12.90000    54.29738   360.00000     3.15338    57.53972   360.00000     3.51947
    13.00000    55.15858   360.00000     3.14792    58.34183   360.00000     3.51552
    13.10000    56.09200   360.00000     3.14237    59.20921   360.00000     3.51130
    13.20000    56.96442   360.00000     3.13755    60.01817   360.00000     3.50744
    13.30000    57.97713   360.00000     3.13235    60.95540   360.00000     3.50304
    13.40000    58.92843   360.00000     3.12788    61.83415   360.00000     3.49900
    13.50000    59.95370   360.00000     3.12348    62.77968   360.00000     3.49474
    13.60000    61.05393   360.00000     3.11922    63.79278   360.00000     3.49028
    13.70000    62.16087   360.00000     3.11542    64.81060   360.00000     3.48593
    13.80000    63.27426   360.00000     3.11206    65.83305   360.00000     3.48169
    13.90000    64.53401   360.00000     3.10877    66.98854   360.00000     3.47706
    14.00000    65.80135   360.00000     3.10599    68.14962   360.00000     3.47258
    14.10000    67.21793   360.00000     3.10346    69.44590   360.00000     3.46780
    14.20000    68.64334   360.00000     3.10149    70.74861   360.00000     3.46325
    14.30000    70.22110   360.00000     3.09989    72.18857   360.00000     3.45851
    14.40000    71.95388   360.00000     3.09875    73.76734   360.00000     3.45369
    14.50000    73.84454   360.00000     3.09813    75.48637   360.00000     3.44890
    14.60000    76.04311   360.00000     3.09802    77.48005   360.00000     3.44397
    14.70000    78.70470   360.00000     3.09848    79.88513   360.00000     3.43893
    14.80000    82.21452   360.00000     3.09955    83.04204   360.00000     3.43389
    14.90000    90.00000   360.00000     3.10107    90.00000   360.00000     3.42933
    15.00000    90.00000   360.00000     3.10121    90.00000   360.00000     3.42944
    15.10000    90.00000   360.00000     3.10134    90.00000   360.00000     3.42955
    15.20000    90.00000   360.00000     3.10147    90.00000   360.00000     3.42966
    15.30000    90.00000   360.00000     3.10160    90.00000   360.00000     3.42977
    15.40000    90.00000   360.00000     3.10173    90.00000   360.00000     3.42988
    15.50000    90.00000   360.00000     3.10186    90.00000   360.00000     3.42999
    15.60000    90.00000   360.00000     3.10199    90.00000   360.00000     3.43010
    15.70000    90.00000   360.00000     3.10212    90.00000   360.00000     3.43021
    15.80000    90.00000   360.00000     3.10225    90.00000   360.00000     3.43032
    15.90000    90.00000   360.00000     3.10238    90.00000   360.00000     3.43043
    16.00000    90.00000   360.00000     3.10251    90.00000   360.00000     3.43054
    16.10000    90.00000   360.00000     3.10264    90.00000   360.00000     3.43065
    16.20000    90.00000   360.00000     3.10277    90.00000   360.00000     3.43076
    16.30000    90.00000   360.00000     3.10290    90.00000   360.00000     3.43087
    16.40000    90.00000   360.00000     3.10303    90.00000   360.00000     3.43098
    16.50000    90.00000   360.00000     3.10316    90.00000   360.00000     3.43109
    16.60000    90.00000   360.00000     3.10329    90.00000   360.00000     3.43119
    16.70000    90.00000   360.00000     3.10342    90.00000   360.00000     3.43130
    16.80000    90.00000   360.00000     3.10355    90.00000   360.00000     3.43141
    16.90000    90.00000   360.00000     3.10369    90.00000   360.00000     3.43152
    17.00000    90.00000   360.00000     3.10382    90.00000   360.00000     3.43163
    17.10000    90.00000   360.00000     3.10395    90.00000   360.00000     3.43174
    17.20000    90.00000   360.00000     3.10408    90.00000   360.00000     3.43185
    17.30000    90.00000   360.00000     3.10421    90.00000   360.00000     3.43196
    17.40000    90.00000   360.00000     3.10434    90.00000   360.00000     3.43207
    17.50000    90.00000   360.00000     3.10447    90.00000   360.00000     3.43218
    17.60000    90.00000   360.00000     3.10460    90.00000   360.00000     3.43229
    17.70000    90.00000   360.00000     3.10472    90.00000   360.00000     3.43240
    17.80000    90.00000   360.00000     3.10485    90.00000   360.00000     3.43251
    17.90000    90.00000   360.00000     3.10498    90.00000   360.00000     3.43262
    18.00000    90.00000   360.00000     3.10511    90.00000   360.00000     3.43272
    18.10000    90.00000   360.00000     3.10524    90.00000   360.00000     3.43283
    18.20000    90.00000   360.00000     3.10537    90.00000   360.00000     3.43294
    18.30000    90.00000   360.00000     3.10550    90.00000   360.00000     3.43305
    18.40000    90.00000   360.00000     3.10563    90.00000   360.00000     3.43316
    18.50000    90.00000   360.00000     3.10576    90.00000   360.00000     3.43327
    18.60000    90.00000   360.00000     3.10589    90.00000   360.00000     3.43338
    18.70000    90.00000   360.00000     3.10602    90.00000   360.00000     3.43349
    18.80000    90.00000   360.00000     3.10615    90.00000   360.00000     3.43360
    18.90000    90.00000   360.00000     3.10628    90.00000   360.00000     3.43370
    19.00000    90.00000   360.00000     3.10641    90.00000   360.00000     3.43381
    19.10000    90.00000   360.00000     3.10654    90.00000   360.00000     3.43392
    19.20000    90.00000   360.00000     3.10667    90.00000   360.00000     3.43403
    19.30000    90.00000   360.00000     3.10680    90.00000   360.00000     3.43414
    19.40000    90.00000   360.00000     3.10693    90.00000   360.00000     3.43425
    19.50000    90.00000   360.00000     3.10706    90.00000   360.00000     3.43436
    19.60000    90.00000   360.00000     3.10719    90.00000   360.00000     3.43447
    19.70000    90.00000   360.00000     3.10732    90.00000   360.00000     3.43457
    19.80000    90.00000   360.00000     3.10745    90.00000   360.00000     3.43468
    19.90000    90.00000   360.00000     3.10757    90.00000   360.00000     3.43479
    20.00000    90.00000   360.00000     3.10770    90.00000   360.00000     3.43490
    20.10000    90.00000   360.00000     3.10783    90.00000   360.00000     3.43501
    20.20000    90.00000   360.00000     3.10796    90.00000   360.00000     3.43512
    20.30000    90.00000   360.00000     3.10809    90.00000   360.00000     3.43522
    20.40000    90.00000   360.00000     3.10822    90.00000   360.00000     3.43533
    20.50000    90.00000   360.00000     3.10835    90.00000   360.00000     3.43544
    20.60000    90.00000   360.00000     3.10848    90.00000   360.00000     3.43555
    20.70000    90.00000   360.00000     3.10861    90.00000   360.00000     3.43566
    20.80000    90.00000   360.00000     3.10874    90.00000   360.00000     3.43577
    20.90000    90.00000   360.00000     3.10886    90.00000   360.00000     3.43587
    21.00000    90.00000   360.00000     3.10899    90.00000   360.00000     3.43598
    21.10000    90.00000   360.00000     3.10912    90.00000   360.00000     3.43609
    21.20000    90.00000   360.00000     3.10925    90.00000   360.00000     3.43620
    21.30000    90.00000   360.00000     3.10938    90.00000   360.00000     3.43631
    21.40000    90.00000   360.00000     3.10951    90.00000   360.00000     3.43641
    21.50000    90.00000   360.00000     3.10964    90.00000   360.00000     3.43652
    21.60000    90.00000   360.00000     3.10977    90.00000   360.00000     3.43663
    21.70000    90.00000   360.00000     3.10990    90.00000   360.00000     3.43674
    21.80000    90.00000   360.00000     3.11002    90.00000   360.00000     3.43685
    21.90000    90.00000   360.00000     3.11015    90.00000   360.00000     3.43695
    22.00000    90.00000   360.00000     3.11028    90.00000   360.00000     3.43706
    22.10000    90.00000   360.00000     3.11041    90.00000   360.00000     3.43717
    22.20000    90.00000   360.00000     3.11054    90.00000   360.00000     3.43728
    22.30000    90.00000   360.00000     3.11067    90.00000   360.00000     3.43739
    22.40000    90.00000   360.00000     3.11079    90.00000   360.00000     3.43749
    22.50000    90.00000   360.00000     3.11092    90.00000   360.00000     3.43760
    22.60000    90.00000   360.00000     3.11105    90.00000   360.00000     3.43771
    22.70000    90.00000   360.00000     3.11118    90.00000   360.00000     3.43782
    22.80000    90.00000   360.00000     3.11131    90.00000   360.00000     3.43792
    22.90000    90.00000   360.00000     3.11144    90.00000   360.00000     3.43803
    23.00000    90.00000   360.00000     3.11156    90.00000   360.00000     3.43814
    23.10000    90.00000   360.00000     3.11169    90.00000   360.00000     3.43825
    23.20000    90.00000   360.00000     3.11182    90.00000   360.00000     3.43835
    23.30000    90.00000   360.00000     3.11195    90.00000   360.00000     3.43846
    23.40000    90.00000   360.00000     3.11208    90.00000   360.00000     3.43857
    23.50000    90.00000   360.00000     3.11221    90.00000   360.00000     3.43868
    23.60000    90.00000   360.00000     3.11233    90.00000   360.00000     3.43878
    23.70000    90.00000   360.00000     3.11246    90.00000   360.00000     3.43889
    23.80000    90.00000   360.00000     3.11259    90.00000   360.00000     3.43900
    23.90000    90.00000   360.00000     3.11272    90.00000   360.00000     3.43911
    24.00000    90.00000   360.00000     3.11284    90.00000   360.00000     3.43921
    24.10000    90.00000   360.00000     3.11297    90.00000   360.00000     3.43932
    24.20000    90.00000   360.00000     3.11310    90.00000   360.00000     3.43943
    24.30000    90.00000   360.00000     3.11323    90.00000   360.00000     3.43954
    24.40000    90.00000   360.00000     3.11336    90.00000   360.00000     3.43964
    24.50000    90.00000   360.00000     3.11348    90.00000   360.00000     3.43975
    24.60000    90.00000   360.00000     3.11361    90.00000   360.00000     3.43986
    24.70000    90.00000   360.00000     3.11374    90.00000   360.00000     3.43996
    24.80000    90.00000   360.00000     3.11387    90.00000   360.00000     3.44007
    24.90000    90.00000   360.00000     3.11399    90.00000   360.00000     3.44018
    25.00000    90.00000   360.00000     3.11412    90.00000   360.00000     3.44029
    25.10000    90.00000   360.00000     3.11425    90.00000   360.00000     3.44039
    25.20000    90.00000   360.00000     3.11438    90.00000   360.00000     3.44050
    25.30000    90.00000   360.00000     3.11450    90.00000   360.00000     3.44061
    25.40000    90.00000   360.00000     3.11463    90.00000   360.00000     3.44071
    25.50000    90.00000   360.00000     3.11476    90.00000   360.00000     3.44082
    25.60000    90.00000   360.00000     3.11489    90.00000   360.00000     3.44093
    25.70000    90.00000   360.00000     3.11501    90.00000   360.00000     3.44103
    25.80000    90.00000   360.00000     3.11514    90.00000   360.00000     3.44114
    25.90000    90.00000   360.00000     3.11527    90.00000   360.00000     3.44125
    26.00000    90.00000   360.00000     3.11540    90.00000   360.00000     3.44135
    26.10000    90.00000   360.00000     3.11552    90.00000   360.00000     3.44146
    26.20000    90.00000   360.00000     3.11565    90.00000   360.00000     3.44157
    26.30000    90.00000   360.00000     3.11578    90.00000   360.00000     3.44167
    26.40000    90.00000   360.00000     3.11590    90.00000   360.00000     3.44178
    26.50000    90.00000   360.00000     3.11603    90.00000   360.00000     3.44189
    26.60000    90.00000   360.00000     3.11616    90.00000   360.00000     3.44199
    26.70000    90.00000   360.00000     3.11629    90.00000   360.00000     3.44210
    26.80000    90.00000   360.00000     3.11641    90.00000   360.00000     3.44221
    26.90000    90.00000   360.00000     3.11654    90.00000   360.00000     3.44231
    27.00000    90.00000   360.00000     3.11667    90.00000   360.00000     3.44242
    27.10000    90.00000   360.00000     3.11679    90.00000   360.00000     3.44253
    27.20000    90.00000   360.00000     3.11692    90.00000   360.00000     3.44263
    27.30000    90.00000   360.00000     3.11705    90.00000   360.00000     3.44274
    27.40000    90.00000   360.00000     3.11718    90.00000   360.00000     3.44284
    27.50000    90.00000   360.00000     3.11730    90.00000   360.00000     3.44295
    27.60000    90.00000   360.00000     3.11743    90.00000   360.00000     3.44306
    27.70000    90.00000   360.00000     3.11756    90.00000   360.00000     3.44316
    27.80000    90.00000   360.00000     3.11768    90.00000   360.00000     3.44327
    27.90000    90.00000   360.00000     3.11781    90.00000   360.00000     3.44338
    28.00000    90.00000   360.00000     3.11794    90.00000   360.00000     3.44348
    28.10000    90.00000   360.00000     3.11807    90.00000   360.00000     3.44359
    28.20000    90.00000   360.00000     3.11819    90.00000   360.00000     3.44369
    28.30000    90.00000   360.00000     3.11832    90.00000   360.00000     3.44380
    28.40000    90.00000   360.00000     3.11845    90.00000   360.00000     3.44391
    28.50000    90.00000   360.00000     3.11857    90.00000   360.00000     3.44401
    28.60000    90.00000   360.00000     3.11870    90.00000   360.00000     3.44412
    28.70000    90.00000   360.00000     3.11882    90.00000   360.00000     3.44422
    28.80000    90.00000   360.00000     3.11895    90.00000   360.00000     3.44433
    28.90000    90.00000   360.00000     3.11908    90.00000   360.00000     3.44444
    29.00000    90.00000   360.00000     3.11920    90.00000   360.00000     3.44454
    29.10000    90.00000   360.00000     3.11933    90.00000   360.00000     3.44465
    29.20000    90.00000   360.00000     3.11946    90.00000   360.00000     3.44475
    29.30000    90.00000   360.00000     3.11958    90.00000   360.00000     3.44486
    29.40000    90.00000   360.00000     3.11971    90.00000   360.00000     3.44496
    29.50000    90.00000   360.00000     3.11984    90.00000   360.00000     3.44507
    29.60000    90.00000   360.00000     3.11996    90.00000   360.00000     3.44518
    29.70000    90.00000   360.00000     3.12009    90.00000   360.00000     3.44528
    29.80000    90.00000   360.00000     3.12021    90.00000   360.00000     3.44539
    29.90000    90.00000   360.00000     3.12034    90.00000   360.00000     3.44549
    30.00000    90.00000   360.00000     3.12047    90.00000   360.00000     3.44560
    30.10000    90.00000   360.00000     3.12059    90.00000   360.00000     3.44570
    30.20000    90.00000   360.00000     3.12072    90.00000   360.00000     3.44581
    30.30000    90.00000   360.00000     3.12084    90.00000   360.00000     3.44591
    30.40000    90.00000   360.00000     3.12097    90.00000   360.00000     3.44602
    30.50000    90.00000   360.00000     3.12109    90.00000   360.00000     3.44613
    30.60000    90.00000   360.00000     3.12122    90.00000   360.00000     3.44623
    30.70000    90.00000   360.00000     3.12135    90.00000   360.00000     3.44634
    30.80000    90.00000   360.00000     3.12147    90.00000   360.00000     3.44644
    30.90000    90.00000   360.00000     3.12160    90.00000   360.00000     3.44655
    31.00000    90.00000   360.00000     3.12172    90.00000   360.00000     3.44665
    31.10000    90.00000   360.00000     3.12185    90.00000   360.00000     3.44676
    31.20000    90.00000   360.00000     3.12197    90.00000   360.00000     3.44686
    31.30000    90.00000   360.00000     3.12210    90.00000   360.00000     3.44697
    31.40000    90.00000   360.00000     3.12223    90.00000   360.00000     3.44707
    31.50000    90.00000   360.00000     3.12235    90.00000   360.00000     3.44718
    31.60000    90.00000   360.00000     3.12248    90.00000   360.00000     3.44728
    31.70000    90.00000   360.00000     3.12260    90.00000   360.00000     3.44739
    31.80000    90.00000   360.00000     3.12273    90.00000   360.00000     3.44749
    31.90000    90.00000   360.00000     3.12285    90.00000   360.00000     3.44760
    32.00000    90.00000   360.00000     3.12298    90.00000   360.00000     3.44770
    32.10000    90.00000   360.00000     3.12310    90.00000   360.00000     3.44781
    32.20000    90.00000   360.00000     3.12323    90.00000   360.00000     3.44791
    32.30000    90.00000   360.00000     3.12335    90.00000   360.00000     3.44802
    32.40000    90.00000   360.00000     3.12348    90.00000   360.00000     3.44812
    32.50000    90.00000   360.00000     3.12360    90.00000   360.00000     3.44823
    32.60000    90.00000   360.00000     3.12373    90.00000   360.00000     3.44833
    32.70000    90.00000   360.00000     3.12386    90.00000   360.00000     3.44844
    32.80000    90.00000   360.00000     3.12398    90.00000   360.00000     3.44854
    32.90000    90.00000   360.00000     3.12411    90.00000   360.00000     3.44865
    33.00000    90.00000   360.00000     3.12423    90.00000   360.00000     3.44875
    33.10000    90.00000   360.00000     3.12436    90.00000   360.00000     3.44886
    33.20000    90.00000   360.00000     3.12448    90.00000   360.00000     3.44896
    33.30000    90.00000   360.00000     3.12461    90.00000   360.00000     3.44907
    33.40000    90.00000   360.00000     3.12473    90.00000   360.00000     3.44917
    33.50000    90.00000   360.00000     3.12486    90.00000   360.00000     3.44927
    33.60000    90.00000   360.00000     3.12498    90.00000   360.00000     3.44938
    33.70000    90.00000   360.00000     3.12510    90.00000   360.00000     3.44948
    33.80000    90.00000   360.00000     3.12523    90.00000   360.00000     3.44959
    33.90000    90.00000   360.00000     3.12535    90.00000   360.00000     3.44969
    34.00000    90.00000   360.00000     3.12548    90.00000   360.00000     3.44980
    34.10000    90.00000   360.00000     3.12560    90.00000   360.00000     3.44990
    34.20000    90.00000   360.00000     3.12573    90.00000   360.00000     3.45001
    34.30000    90.00000   360.00000     3.12585    90.00000   360.00000     3.45011
    34.40000    90.00000   360.00000     3.12598    90.00000   360.00000     3.45021
    34.50000    90.00000   360.00000     3.12610    90.00000   360.00000     3.45032
    34.60000    90.00000   360.00000     3.12623    90.00000   360.00000     3.45042
    34.70000    90.00000   360.00000     3.12635    90.00000   360.00000     3.45053
    34.80000    90.00000   360.00000     3.12648    90.00000   360.00000     3.45063
    34.90000    90.00000   360.00000     3.12660    90.00000   360.00000     3.45073
    35.00000    90.00000   360.00000     3.12673    90.00000   360.00000     3.45084
    35.10000    90.00000   360.00000     3.12685    90.00000   360.00000     3.45094
    35.20000    90.00000   360.00000     3.12697    90.00000   360.00000     3.45105
    35.30000    90.00000   360.00000     3.12710    90.00000   360.00000     3.45115
    35.40000    90.00000   360.00000     3.12722    90.00000   360.00000     3.45125
    35.50000    90.00000   360.00000     3.12735    90.00000   360.00000     3.45136
    35.60000    90.00000   360.00000     3.12747    90.00000   360.00000     3.45146
    35.70000    90.00000   360.00000     3.12760    90.00000   360.00000     3.45157
    35.80000    90.00000   360.00000     3.12772    90.00000   360.00000     3.45167
    35.90000    90.00000   360.00000     3.12785    90.00000   360.00000     3.45177
    36.00000    90.00000   360.00000     3.12797    90.00000   360.00000     3.45188
    36.10000    90.00000   360.00000     3.12810    90.00000   360.00000     3.45198
    36.20000    90.00000   360.00000     3.12822    90.00000   360.00000     3.45209
    36.30000    90.00000   360.00000     3.12834    90.00000   360.00000     3.45219
    36.40000    90.00000   360.00000     3.12847    90.00000   360.00000     3.45229
    36.50000    90.00000   360.00000     3.12859    90.00000   360.00000     3.45240
    36.60000    90.00000   360.00000     3.12872    90.00000   360.00000     3.45250
    36.70000    90.00000   360.00000     3.12884    90.00000   360.00000     3.45260
    36.80000    90.00000   360.00000     3.12896    90.00000   360.00000     3.45271
    36.90000    90.00000   360.00000     3.12909    90.00000   360.00000     3.45281
    37.00000    90.00000   360.00000     3.12921    90.00000   360.00000     3.45291
    37.10000    90.00000   360.00000     3.12934    90.00000   360.00000     3.45302
    37.20000    90.00000   360.00000     3.12946    90.00000   360.00000     3.45312
    37.30000    90.00000   360.00000     3.12958    90.00000   360.00000     3.45323
    37.40000    90.00000   360.00000     3.12971    90.00000   360.00000     3.45333
    37.50000    90.00000   360.00000     3.12983    90.00000   360.00000     3.45343
    37.60000    90.00000   360.00000     3.12995    90.00000   360.00000     3.45354
    37.70000    90.00000   360.00000     3.13008    90.00000   360.00000     3.45364
    37.80000    90.00000   360.00000     3.13020    90.00000   360.00000     3.45374
    37.90000    90.00000   360.00000     3.13032    90.00000   360.00000     3.45385
    38.00000    90.00000   360.00000     3.13045    90.00000   360.00000     3.45395
    38.10000    90.00000   360.00000     3.13057    90.00000   360.00000     3.45405
    38.20000    90.00000   360.00000     3.13069    90.00000   360.00000     3.45415
    38.30000    90.00000   360.00000     3.13082    90.00000   360.00000     3.45426
    38.40000    90.00000   360.00000     3.13094    90.00000   360.00000     3.45436
    38.50000    90.00000   360.00000     3.13107    90.00000   360.00000     3.45446
    38.60000    90.00000   360.00000     3.13119    90.00000   360.00000     3.45457
    38.70000    90.00000   360.00000     3.13131    90.00000   360.00000     3.45467
    38.80000    90.00000   360.00000     3.13143    90.00000   360.00000     3.45477
    38.90000    90.00000   360.00000     3.13156    90.00000   360.00000     3.45488
    39.00000    90.00000   360.00000     3.13168    90.00000   360.00000     3.45498
    39.10000    90.00000   360.00000     3.13180    90.00000   360.00000     3.45508
    39.20000    90.00000   360.00000     3.13193    90.00000   360.00000     3.45518
    39.30000    90.00000   360.00000     3.13205    90.00000   360.00000     3.45529
    39.40000    90.00000   360.00000     3.13217    90.00000   360.00000     3.45539
    39.50000    90.00000   360.00000     3.13230    90.00000   360.00000     3.45549
    39.60000    90.00000   360.00000     3.13242    90.00000   360.00000     3.45560
    39.70000    90.00000   360.00000     3.13254    90.00000   360.00000     3.45570
    39.80000    90.00000   360.00000     3.13267    90.00000   360.00000     3.45580
    39.90000    90.00000   360.00000     3.13279    90.00000   360.00000     3.45590
    40.00000    90.00000   360.00000     3.13291    90.00000   360.00000     3.45601
