 # applied field (T), theta (degree), phi (degree), abs [muB/unitcell], abs [T]
       0.00000000      90.00000000      45.42853158      36.36984844       1.26649865
       0.10000000      90.00000000     360.00000000      36.36855853       1.26645373
       0.20000000      90.00000000     360.00000000      36.36880770       1.26646241
       0.30000000      90.00000000     360.00000000      36.36905684       1.26647108
       0.40000000      90.00000000     360.00000000      36.36930597       1.26647976
       0.50000000      90.00000000     360.00000000      36.36955507       1.26648843
       0.60000000      90.00000000     360.00000000      36.36980416       1.26649711
       0.70000000      90.00000000     360.00000000      36.37005322       1.26650578
       0.80000000      90.00000000     360.00000000      36.37030226       1.26651445
       0.90000000      90.00000000     360.00000000      36.37055128       1.26652312
       1.00000000      90.00000000     360.00000000      36.37080027       1.26653179
       1.10000000      90.00000000     360.00000000      36.37104925       1.26654046
       1.20000000      90.00000000     360.00000000      36.37129820       1.26654913
       1.30000000      90.00000000     360.00000000      36.37154714       1.26655780
       1.40000000      90.00000000     360.00000000      36.37179605       1.26656647
       1.50000000      90.00000000     360.00000000      36.37204494       1.26657514
       1.60000000      90.00000000     360.00000000      36.37229381       1.26658380
       1.70000000      90.00000000     360.00000000      36.37254266       1.26659247
       1.80000000      90.00000000     360.00000000      36.37279148       1.26660113
       1.90000000      90.00000000     360.00000000      36.37304029       1.26660980
       2.00000000      90.00000000     360.00000000      36.37328908       1.26661846
       2.10000000      90.00000000     360.00000000      36.37353784       1.26662712
       2.20000000      90.00000000     360.00000000      36.37378658       1.26663578
       2.30000000      90.00000000     360.00000000      36.37403530       1.26664445
       2.40000000      90.00000000     360.00000000      36.37428400       1.26665311
       2.50000000      90.00000000     360.00000000      36.37453268       1.26666177
       2.60000000      90.00000000     360.00000000      36.37478134       1.26667043
       2.70000000      90.00000000     360.00000000      36.37502998       1.26667908
       2.80000000      90.00000000     360.00000000      36.37527859       1.26668774
       2.90000000      90.00000000     360.00000000      36.37552719       1.26669640
       3.00000000      90.00000000     360.00000000      36.37577576       1.26670505
       3.10000000      90.00000000     360.00000000      36.37602431       1.26671371
       3.20000000      90.00000000     360.00000000      36.37627284       1.26672236
       3.30000000      90.00000000     360.00000000      36.37652135       1.26673102
       3.40000000      90.00000000     360.00000000      36.37676984       1.26673967
       3.50000000      90.00000000     360.00000000      36.37701831       1.26674832
       3.60000000      90.00000000     360.00000000      36.37726675       1.26675697
       3.70000000      90.00000000     360.00000000      36.37751518       1.26676562
       3.80000000      90.00000000     360.00000000      36.37776358       1.26677428
       3.90000000      90.00000000     360.00000000      36.37801197       1.26678292
       4.00000000      90.00000000     360.00000000      36.37826033       1.26679157
       4.10000000      90.00000000     360.00000000      36.37850867       1.26680022
       4.20000000      90.00000000     360.00000000      36.37875699       1.26680887
       4.30000000      90.00000000     360.00000000      36.37900529       1.26681751
       4.40000000      90.00000000     360.00000000      36.37925357       1.26682616
       4.50000000      90.00000000     360.00000000      36.37950183       1.26683481
       4.60000000      90.00000000     360.00000000      36.37975007       1.26684345
       4.70000000      90.00000000     360.00000000      36.37999828       1.26685209
       4.80000000      90.00000000     360.00000000      36.38024648       1.26686074
       4.90000000      90.00000000     360.00000000      36.38049465       1.26686938
       5.00000000      90.00000000     360.00000000      36.38074280       1.26687802
       5.10000000      90.00000000     360.00000000      36.38099093       1.26688666
       5.20000000      90.00000000     360.00000000      36.38123905       1.26689530
       5.30000000      90.00000000     360.00000000      36.38148714       1.26690394
       5.40000000      90.00000000     360.00000000      36.38173520       1.26691258
       5.50000000      90.00000000     360.00000000      36.38198325       1.26692122
       5.60000000      90.00000000     360.00000000      36.38223128       1.26692985
       5.70000000      90.00000000     360.00000000      36.38247929       1.26693849
       5.80000000      90.00000000     360.00000000      36.38272727       1.26694712
       5.90000000      90.00000000     360.00000000      36.38297524       1.26695576
       6.00000000      90.00000000     360.00000000      36.38322318       1.26696439
       6.10000000      90.00000000     360.00000000      36.38347111       1.26697303
       6.20000000      90.00000000     360.00000000      36.38371901       1.26698166
       6.30000000      90.00000000     360.00000000      36.38396689       1.26699029
       6.40000000      90.00000000     360.00000000      36.38421475       1.26699892
       6.50000000      90.00000000     360.00000000      36.38446259       1.26700755
       6.60000000      90.00000000     360.00000000      36.38471041       1.26701618
       6.70000000      90.00000000     360.00000000      36.38495821       1.26702481
       6.80000000      90.00000000     360.00000000      36.38520599       1.26703344
       6.90000000      90.00000000     360.00000000      36.38545374       1.26704207
       7.00000000      90.00000000     360.00000000      36.38570148       1.26705069
       7.10000000      90.00000000     360.00000000      36.38594920       1.26705932
       7.20000000      90.00000000     360.00000000      36.38619689       1.26706795
       7.30000000      90.00000000     360.00000000      36.38644456       1.26707657
       7.40000000      90.00000000     360.00000000      36.38669222       1.26708519
       7.50000000      90.00000000     360.00000000      36.38693985       1.26709382
       7.60000000      90.00000000     360.00000000      36.38718746       1.26710244
       7.70000000      90.00000000     360.00000000      36.38743505       1.26711106
       7.80000000      90.00000000     360.00000000      36.38768262       1.26711968
       7.90000000      90.00000000     360.00000000      36.38793017       1.26712830
       8.00000000      90.00000000     360.00000000      36.38817770       1.26713692
       8.10000000      90.00000000     360.00000000      36.38842521       1.26714554
       8.20000000      90.00000000     360.00000000      36.38867270       1.26715416
       8.30000000      90.00000000     360.00000000      36.38892017       1.26716278
       8.40000000      90.00000000     360.00000000      36.38916762       1.26717139
       8.50000000      90.00000000     360.00000000      36.38941504       1.26718001
       8.60000000      90.00000000     360.00000000      36.38966245       1.26718863
       8.70000000      90.00000000     360.00000000      36.38990983       1.26719724
       8.80000000      90.00000000     360.00000000      36.39015720       1.26720585
       8.90000000      90.00000000     360.00000000      36.39040454       1.26721447
       9.00000000      90.00000000     360.00000000      36.39065187       1.26722308
       9.10000000      90.00000000     360.00000000      36.39089917       1.26723169
       9.20000000      90.00000000     360.00000000      36.39114645       1.26724030
       9.30000000      90.00000000     360.00000000      36.39139371       1.26724891
       9.40000000      90.00000000     360.00000000      36.39164095       1.26725752
       9.50000000      90.00000000     360.00000000      36.39188818       1.26726613
       9.60000000      90.00000000     360.00000000      36.39213538       1.26727474
       9.70000000      90.00000000     360.00000000      36.39238256       1.26728335
       9.80000000      90.00000000     360.00000000      36.39262971       1.26729195
       9.90000000      90.00000000     360.00000000      36.39287685       1.26730056
      10.00000000      90.00000000     360.00000000      36.39312397       1.26730917
      10.10000000      90.00000000     360.00000000      36.39337107       1.26731777
      10.20000000      90.00000000     360.00000000      36.39361815       1.26732637
      10.30000000      90.00000000     360.00000000      36.39386521       1.26733498
      10.40000000      90.00000000     360.00000000      36.39411224       1.26734358
      10.50000000      90.00000000     360.00000000      36.39435926       1.26735218
      10.60000000      90.00000000     360.00000000      36.39460625       1.26736078
      10.70000000      90.00000000     360.00000000      36.39485323       1.26736938
      10.80000000      90.00000000     360.00000000      36.39510019       1.26737798
      10.90000000      90.00000000     360.00000000      36.39534712       1.26738658
      11.00000000      90.00000000     360.00000000      36.39559403       1.26739518
      11.10000000      90.00000000     360.00000000      36.39584093       1.26740378
      11.20000000      90.00000000     360.00000000      36.39608780       1.26741238
      11.30000000      90.00000000     360.00000000      36.39633466       1.26742097
      11.40000000      90.00000000     360.00000000      36.39658149       1.26742957
      11.50000000      90.00000000     360.00000000      36.39682830       1.26743816
      11.60000000      90.00000000     360.00000000      36.39707509       1.26744676
      11.70000000      90.00000000     360.00000000      36.39732187       1.26745535
      11.80000000      90.00000000     360.00000000      36.39756862       1.26746394
      11.90000000      90.00000000     360.00000000      36.39781535       1.26747253
      12.00000000      90.00000000     360.00000000      36.39806206       1.26748112
      12.10000000      90.00000000     360.00000000      36.39830875       1.26748971
      12.20000000      90.00000000     360.00000000      36.39855542       1.26749830
      12.30000000      90.00000000     360.00000000      36.39880207       1.26750689
      12.40000000      90.00000000     360.00000000      36.39904870       1.26751548
      12.50000000      90.00000000     360.00000000      36.39929531       1.26752407
      12.60000000      90.00000000     360.00000000      36.39954190       1.26753266
      12.70000000      90.00000000     360.00000000      36.39978847       1.26754124
      12.80000000      90.00000000     360.00000000      36.40003502       1.26754983
      12.90000000      90.00000000     360.00000000      36.40028155       1.26755841
      13.00000000      90.00000000     360.00000000      36.40052806       1.26756700
      13.10000000      90.00000000     360.00000000      36.40077455       1.26757558
      13.20000000      90.00000000     360.00000000      36.40102102       1.26758416
      13.30000000      90.00000000     360.00000000      36.40126747       1.26759275
      13.40000000      90.00000000     360.00000000      36.40151390       1.26760133
      13.50000000      90.00000000     360.00000000      36.40176031       1.26760991
      13.60000000      90.00000000     360.00000000      36.40200669       1.26761849
      13.70000000      90.00000000     360.00000000      36.40225306       1.26762707
      13.80000000      90.00000000     360.00000000      36.40249941       1.26763564
      13.90000000      90.00000000     360.00000000      36.40274574       1.26764422
      14.00000000      90.00000000     360.00000000      36.40299205       1.26765280
      14.10000000      90.00000000     360.00000000      36.40323834       1.26766138
      14.20000000      90.00000000     360.00000000      36.40348460       1.26766995
      14.30000000      90.00000000     360.00000000      36.40373085       1.26767853
      14.40000000      90.00000000     360.00000000      36.40397708       1.26768710
      14.50000000      90.00000000     360.00000000      36.40422329       1.26769568
      14.60000000      90.00000000     360.00000000      36.40446947       1.26770425
      14.70000000      90.00000000     360.00000000      36.40471564       1.26771282
      14.80000000      90.00000000     360.00000000      36.40496179       1.26772139
      14.90000000      90.00000000     360.00000000      36.40520792       1.26772996
      15.00000000      90.00000000     360.00000000      36.40545402       1.26773853
      15.10000000      90.00000000     360.00000000      36.40570011       1.26774710
      15.20000000      90.00000000     360.00000000      36.40594618       1.26775567
      15.30000000      90.00000000     360.00000000      36.40619223       1.26776424
      15.40000000      90.00000000     360.00000000      36.40643826       1.26777281
      15.50000000      90.00000000     360.00000000      36.40668426       1.26778137
      15.60000000      90.00000000     360.00000000      36.40693025       1.26778994
      15.70000000      90.00000000     360.00000000      36.40717622       1.26779850
      15.80000000      90.00000000     360.00000000      36.40742217       1.26780707
      15.90000000      90.00000000     360.00000000      36.40766810       1.26781563
      16.00000000      90.00000000     360.00000000      36.40791400       1.26782420
      16.10000000      90.00000000     360.00000000      36.40815989       1.26783276
      16.20000000      90.00000000     360.00000000      36.40840576       1.26784132
      16.30000000      90.00000000     360.00000000      36.40865161       1.26784988
      16.40000000      90.00000000     360.00000000      36.40889744       1.26785844
      16.50000000      90.00000000     360.00000000      36.40914325       1.26786700
      16.60000000      90.00000000     360.00000000      36.40938904       1.26787556
      16.70000000      90.00000000     360.00000000      36.40963481       1.26788412
      16.80000000      90.00000000     360.00000000      36.40988056       1.26789268
      16.90000000      90.00000000     360.00000000      36.41012629       1.26790123
      17.00000000      90.00000000     360.00000000      36.41037200       1.26790979
      17.10000000      90.00000000     360.00000000      36.41061769       1.26791835
      17.20000000      90.00000000     360.00000000      36.41086336       1.26792690
      17.30000000      90.00000000     360.00000000      36.41110901       1.26793545
      17.40000000      90.00000000     360.00000000      36.41135464       1.26794401
      17.50000000      90.00000000     360.00000000      36.41160025       1.26795256
      17.60000000      90.00000000     360.00000000      36.41184584       1.26796111
      17.70000000      90.00000000     360.00000000      36.41209141       1.26796966
      17.80000000      90.00000000     360.00000000      36.41233696       1.26797822
      17.90000000      90.00000000     360.00000000      36.41258250       1.26798677
      18.00000000      90.00000000     360.00000000      36.41282801       1.26799532
      18.10000000      90.00000000     360.00000000      36.41307350       1.26800386
      18.20000000      90.00000000     360.00000000      36.41331897       1.26801241
      18.30000000      90.00000000     360.00000000      36.41356443       1.26802096
      18.40000000      90.00000000     360.00000000      36.41380986       1.26802951
      18.50000000      90.00000000     360.00000000      36.41405528       1.26803805
      18.60000000      90.00000000     360.00000000      36.41430067       1.26804660
      18.70000000      90.00000000     360.00000000      36.41454604       1.26805514
      18.80000000      90.00000000     360.00000000      36.41479140       1.26806369
      18.90000000      90.00000000     360.00000000      36.41503674       1.26807223
      19.00000000      90.00000000     360.00000000      36.41528205       1.26808077
      19.10000000      90.00000000     360.00000000      36.41552735       1.26808931
      19.20000000      90.00000000     360.00000000      36.41577262       1.26809785
      19.30000000      90.00000000     360.00000000      36.41601788       1.26810640
      19.40000000      90.00000000     360.00000000      36.41626312       1.26811494
      19.50000000      90.00000000     360.00000000      36.41650834       1.26812347
      19.60000000      90.00000000     360.00000000      36.41675354       1.26813201
      19.70000000      90.00000000     360.00000000      36.41699871       1.26814055
      19.80000000      90.00000000     360.00000000      36.41724387       1.26814909
      19.90000000      90.00000000     360.00000000      36.41748901       1.26815762
      20.00000000      90.00000000     360.00000000      36.41773413       1.26816616
      20.10000000      90.00000000     360.00000000      36.41797923       1.26817470
      20.20000000      90.00000000     360.00000000      36.41822432       1.26818323
      20.30000000      90.00000000     360.00000000      36.41846938       1.26819176
      20.40000000      90.00000000     360.00000000      36.41871442       1.26820030
      20.50000000      90.00000000     360.00000000      36.41895944       1.26820883
      20.60000000      90.00000000     360.00000000      36.41920445       1.26821736
      20.70000000      90.00000000     360.00000000      36.41944943       1.26822589
      20.80000000      90.00000000     360.00000000      36.41969440       1.26823442
      20.90000000      90.00000000     360.00000000      36.41993934       1.26824295
      21.00000000      90.00000000     360.00000000      36.42018427       1.26825148
      21.10000000      90.00000000     360.00000000      36.42042917       1.26826001
      21.20000000      90.00000000     360.00000000      36.42067406       1.26826854
      21.30000000      90.00000000     360.00000000      36.42091893       1.26827706
      21.40000000      90.00000000     360.00000000      36.42116377       1.26828559
      21.50000000      90.00000000     360.00000000      36.42140860       1.26829412
      21.60000000      90.00000000     360.00000000      36.42165341       1.26830264
      21.70000000      90.00000000     360.00000000      36.42189820       1.26831116
      21.80000000      90.00000000     360.00000000      36.42214297       1.26831969
      21.90000000      90.00000000     360.00000000      36.42238772       1.26832821
      22.00000000      90.00000000     360.00000000      36.42263246       1.26833673
      22.10000000      90.00000000     360.00000000      36.42287717       1.26834525
      22.20000000      90.00000000     360.00000000      36.42312186       1.26835378
      22.30000000      90.00000000     360.00000000      36.42336654       1.26836230
      22.40000000      90.00000000     360.00000000      36.42361119       1.26837082
      22.50000000      90.00000000     360.00000000      36.42385583       1.26837933
      22.60000000      90.00000000     360.00000000      36.42410044       1.26838785
      22.70000000      90.00000000     360.00000000      36.42434504       1.26839637
      22.80000000      90.00000000     360.00000000      36.42458962       1.26840489
      22.90000000      90.00000000     360.00000000      36.42483418       1.26841340
      23.00000000      90.00000000     360.00000000      36.42507872       1.26842192
      23.10000000      90.00000000     360.00000000      36.42532324       1.26843043
      23.20000000      90.00000000     360.00000000      36.42556774       1.26843895
      23.30000000      90.00000000     360.00000000      36.42581222       1.26844746
      23.40000000      90.00000000     360.00000000      36.42605668       1.26845597
      23.50000000      90.00000000     360.00000000      36.42630112       1.26846449
      23.60000000      90.00000000     360.00000000      36.42654555       1.26847300
      23.70000000      90.00000000     360.00000000      36.42678995       1.26848151
      23.80000000      90.00000000     360.00000000      36.42703434       1.26849002
      23.90000000      90.00000000     360.00000000      36.42727871       1.26849853
      24.00000000      90.00000000     360.00000000      36.42752305       1.26850704
      24.10000000      90.00000000     360.00000000      36.42776738       1.26851555
      24.20000000      90.00000000     360.00000000      36.42801169       1.26852405
      24.30000000      90.00000000     360.00000000      36.42825598       1.26853256
      24.40000000      90.00000000     360.00000000      36.42850025       1.26854107
      24.50000000      90.00000000     360.00000000      36.42874450       1.26854957
      24.60000000      90.00000000     360.00000000      36.42898874       1.26855808
      24.70000000      90.00000000     360.00000000      36.42923295       1.26856658
      24.80000000      90.00000000     360.00000000      36.42947714       1.26857508
      24.90000000      90.00000000     360.00000000      36.42972132       1.26858359
      25.00000000      90.00000000     360.00000000      36.42996548       1.26859209
      25.10000000      90.00000000     360.00000000      36.43020961       1.26860059
      25.20000000      90.00000000     360.00000000      36.43045373       1.26860909
      25.30000000      90.00000000     360.00000000      36.43069783       1.26861759
      25.40000000      90.00000000     360.00000000      36.43094191       1.26862609
      25.50000000      90.00000000     360.00000000      36.43118597       1.26863459
      25.60000000      90.00000000     360.00000000      36.43143002       1.26864309
      25.70000000      90.00000000     360.00000000      36.43167404       1.26865159
      25.80000000      90.00000000     360.00000000      36.43191804       1.26866008
      25.90000000      90.00000000     360.00000000      36.43216203       1.26866858
      26.00000000      90.00000000     360.00000000      36.43240600       1.26867707
      26.10000000      90.00000000     360.00000000      36.43264994       1.26868557
      26.20000000      90.00000000     360.00000000      36.43289387       1.26869406
      26.30000000      90.00000000     360.00000000      36.43313778       1.26870256
      26.40000000      90.00000000     360.00000000      36.43338167       1.26871105
      26.50000000      90.00000000     360.00000000      36.43362554       1.26871954
      26.60000000      90.00000000     360.00000000      36.43386940       1.26872803
      26.70000000      90.00000000     360.00000000      36.43411323       1.26873653
      26.80000000      90.00000000     360.00000000      36.43435705       1.26874502
      26.90000000      90.00000000     360.00000000      36.43460084       1.26875351
      27.00000000      90.00000000     360.00000000      36.43484462       1.26876199
      27.10000000      90.00000000     360.00000000      36.43508838       1.26877048
      27.20000000      90.00000000     360.00000000      36.43533212       1.26877897
      27.30000000      90.00000000     360.00000000      36.43557584       1.26878746
      27.40000000      90.00000000     360.00000000      36.43581954       1.26879594
      27.50000000      90.00000000     360.00000000      36.43606323       1.26880443
      27.60000000      90.00000000     360.00000000      36.43630689       1.26881291
      27.70000000      90.00000000     360.00000000      36.43655054       1.26882140
      27.80000000      90.00000000     360.00000000      36.43679416       1.26882988
      27.90000000      90.00000000     360.00000000      36.43703777       1.26883837
      28.00000000      90.00000000     360.00000000      36.43728136       1.26884685
      28.10000000      90.00000000     360.00000000      36.43752493       1.26885533
      28.20000000      90.00000000     360.00000000      36.43776849       1.26886381
      28.30000000      90.00000000     360.00000000      36.43801202       1.26887229
      28.40000000      90.00000000     360.00000000      36.43825553       1.26888077
      28.50000000      90.00000000     360.00000000      36.43849903       1.26888925
      28.60000000      90.00000000     360.00000000      36.43874251       1.26889773
      28.70000000      90.00000000     360.00000000      36.43898596       1.26890621
      28.80000000      90.00000000     360.00000000      36.43922940       1.26891468
      28.90000000      90.00000000     360.00000000      36.43947283       1.26892316
      29.00000000      90.00000000     360.00000000      36.43971623       1.26893164
      29.10000000      90.00000000     360.00000000      36.43995961       1.26894011
      29.20000000      90.00000000     360.00000000      36.44020298       1.26894859
      29.30000000      90.00000000     360.00000000      36.44044632       1.26895706
      29.40000000      90.00000000     360.00000000      36.44068965       1.26896553
      29.50000000      90.00000000     360.00000000      36.44093296       1.26897401
      29.60000000      90.00000000     360.00000000      36.44117625       1.26898248
      29.70000000      90.00000000     360.00000000      36.44141952       1.26899095
      29.80000000      90.00000000     360.00000000      36.44166278       1.26899942
      29.90000000      90.00000000     360.00000000      36.44190601       1.26900789
      30.00000000      90.00000000     360.00000000      36.44214923       1.26901636
      30.10000000      90.00000000     360.00000000      36.44239242       1.26902483
      30.20000000      90.00000000     360.00000000      36.44263560       1.26903330
      30.30000000      90.00000000     360.00000000      36.44287876       1.26904177
      30.40000000      90.00000000     360.00000000      36.44312191       1.26905023
      30.50000000      90.00000000     360.00000000      36.44336503       1.26905870
      30.60000000      90.00000000     360.00000000      36.44360813       1.26906716
      30.70000000      90.00000000     360.00000000      36.44385122       1.26907563
      30.80000000      90.00000000     360.00000000      36.44409429       1.26908409
      30.90000000      90.00000000     360.00000000      36.44433734       1.26909256
      31.00000000      90.00000000     360.00000000      36.44458037       1.26910102
      31.10000000      90.00000000     360.00000000      36.44482338       1.26910948
      31.20000000      90.00000000     360.00000000      36.44506638       1.26911794
      31.30000000      90.00000000     360.00000000      36.44530935       1.26912641
      31.40000000      90.00000000     360.00000000      36.44555231       1.26913487
      31.50000000      90.00000000     360.00000000      36.44579525       1.26914333
      31.60000000      90.00000000     360.00000000      36.44603817       1.26915178
      31.70000000      90.00000000     360.00000000      36.44628107       1.26916024
      31.80000000      90.00000000     360.00000000      36.44652395       1.26916870
      31.90000000      90.00000000     360.00000000      36.44676682       1.26917716
      32.00000000      90.00000000     360.00000000      36.44700967       1.26918562
      32.10000000      90.00000000     360.00000000      36.44725249       1.26919407
      32.20000000      90.00000000     360.00000000      36.44749530       1.26920253
      32.30000000      90.00000000     360.00000000      36.44773810       1.26921098
      32.40000000      90.00000000     360.00000000      36.44798087       1.26921943
      32.50000000      90.00000000     360.00000000      36.44822362       1.26922789
      32.60000000      90.00000000     360.00000000      36.44846636       1.26923634
      32.70000000      90.00000000     360.00000000      36.44870908       1.26924479
      32.80000000      90.00000000     360.00000000      36.44895178       1.26925324
      32.90000000      90.00000000     360.00000000      36.44919446       1.26926170
      33.00000000      90.00000000     360.00000000      36.44943712       1.26927015
      33.10000000      90.00000000     360.00000000      36.44967977       1.26927860
      33.20000000      90.00000000     360.00000000      36.44992240       1.26928704
      33.30000000      90.00000000     360.00000000      36.45016500       1.26929549
      33.40000000      90.00000000     360.00000000      36.45040759       1.26930394
      33.50000000      90.00000000     360.00000000      36.45065017       1.26931239
      33.60000000      90.00000000     360.00000000      36.45089272       1.26932083
      33.70000000      90.00000000     360.00000000      36.45113526       1.26932928
      33.80000000      90.00000000     360.00000000      36.45137777       1.26933772
      33.90000000      90.00000000     360.00000000      36.45162027       1.26934617
      34.00000000      90.00000000     360.00000000      36.45186275       1.26935461
      34.10000000      90.00000000     360.00000000      36.45210522       1.26936306
      34.20000000      90.00000000     360.00000000      36.45234766       1.26937150
      34.30000000      90.00000000     360.00000000      36.45259009       1.26937994
      34.40000000      90.00000000     360.00000000      36.45283250       1.26938838
      34.50000000      90.00000000     360.00000000      36.45307489       1.26939682
      34.60000000      90.00000000     360.00000000      36.45331726       1.26940526
      34.70000000      90.00000000     360.00000000      36.45355961       1.26941370
      34.80000000      90.00000000     360.00000000      36.45380195       1.26942214
      34.90000000      90.00000000     360.00000000      36.45404426       1.26943058
      35.00000000      90.00000000     360.00000000      36.45428656       1.26943902
      35.10000000      90.00000000     360.00000000      36.45452885       1.26944745
      35.20000000      90.00000000     360.00000000      36.45477111       1.26945589
      35.30000000      90.00000000     360.00000000      36.45501335       1.26946433
      35.40000000      90.00000000     360.00000000      36.45525558       1.26947276
      35.50000000      90.00000000     360.00000000      36.45549779       1.26948119
      35.60000000      90.00000000     360.00000000      36.45573998       1.26948963
      35.70000000      90.00000000     360.00000000      36.45598215       1.26949806
      35.80000000      90.00000000     360.00000000      36.45622431       1.26950649
      35.90000000      90.00000000     360.00000000      36.45646645       1.26951493
      36.00000000      90.00000000     360.00000000      36.45670857       1.26952336
      36.10000000      90.00000000     360.00000000      36.45695067       1.26953179
      36.20000000      90.00000000     360.00000000      36.45719275       1.26954022
      36.30000000      90.00000000     360.00000000      36.45743481       1.26954865
      36.40000000      90.00000000     360.00000000      36.45767686       1.26955708
      36.50000000      90.00000000     360.00000000      36.45791889       1.26956550
      36.60000000      90.00000000     360.00000000      36.45816090       1.26957393
      36.70000000      90.00000000     360.00000000      36.45840289       1.26958236
      36.80000000      90.00000000     360.00000000      36.45864487       1.26959078
      36.90000000      90.00000000     360.00000000      36.45888683       1.26959921
      37.00000000      90.00000000     360.00000000      36.45912877       1.26960764
      37.10000000      90.00000000     360.00000000      36.45937069       1.26961606
      37.20000000      90.00000000     360.00000000      36.45961259       1.26962448
      37.30000000      90.00000000     360.00000000      36.45985448       1.26963291
      37.40000000      90.00000000     360.00000000      36.46009635       1.26964133
      37.50000000      90.00000000     360.00000000      36.46033820       1.26964975
      37.60000000      90.00000000     360.00000000      36.46058003       1.26965817
      37.70000000      90.00000000     360.00000000      36.46082184       1.26966659
      37.80000000      90.00000000     360.00000000      36.46106364       1.26967501
      37.90000000      90.00000000     360.00000000      36.46130542       1.26968343
      38.00000000      90.00000000     360.00000000      36.46154718       1.26969185
      38.10000000      90.00000000     360.00000000      36.46178892       1.26970027
      38.20000000      90.00000000     360.00000000      36.46203065       1.26970869
      38.30000000      90.00000000     360.00000000      36.46227235       1.26971710
      38.40000000      90.00000000     360.00000000      36.46251404       1.26972552
      38.50000000      90.00000000     360.00000000      36.46275571       1.26973394
      38.60000000      90.00000000     360.00000000      36.46299737       1.26974235
      38.70000000      90.00000000     360.00000000      36.46323900       1.26975077
      38.80000000      90.00000000     360.00000000      36.46348062       1.26975918
      38.90000000      90.00000000     360.00000000      36.46372222       1.26976759
      39.00000000      90.00000000     360.00000000      36.46396381       1.26977601
      39.10000000      90.00000000     360.00000000      36.46420537       1.26978442
      39.20000000      90.00000000     360.00000000      36.46444692       1.26979283
      39.30000000      90.00000000     360.00000000      36.46468845       1.26980124
      39.40000000      90.00000000     360.00000000      36.46492996       1.26980965
      39.50000000      90.00000000     360.00000000      36.46517146       1.26981806
      39.60000000      90.00000000     360.00000000      36.46541293       1.26982647
      39.70000000      90.00000000     360.00000000      36.46565439       1.26983488
      39.80000000      90.00000000     360.00000000      36.46589583       1.26984328
      39.90000000      90.00000000     360.00000000      36.46613726       1.26985169
      40.00000000      90.00000000     360.00000000      36.46637866       1.26986010
