 # applied field (T), theta (degree), phi (degree), abs [muB/unitcell], abs [T]
       0.00000000       0.00000000       0.00000000      34.70361609       1.16013498
       0.10000000      90.00000000       4.32384050      34.72114353       1.16072091
       0.20000000      90.00000000       8.64791465      34.72050359       1.16069952
       0.30000000      90.00000000      12.10761760      34.71969716       1.16067256
       0.40000000      90.00000000      73.56721273      34.71831772       1.16062645
       0.50000000      90.00000000      70.10638286      34.71708624       1.16058528
       0.60000000      90.00000000      65.77956868      34.71541813       1.16052951
       0.70000000      90.00000000      60.58616267      34.71348267       1.16046481
       0.80000000      90.00000000      36.34022113      34.71146284       1.16039729
       0.90000000      90.00000000      45.00000000      34.71058560       1.16036796
       1.00000000      90.00000000      45.00000000      34.71082168       1.16037586
       1.10000000      90.00000000      45.00000000      34.71105773       1.16038375
       1.20000000      90.00000000      45.00000000      34.71129377       1.16039164
       1.30000000      90.00000000      45.00000000      34.71152978       1.16039953
       1.40000000      90.00000000      45.00000000      34.71176577       1.16040742
       1.50000000      90.00000000      45.00000000      34.71200174       1.16041531
       1.60000000      90.00000000      45.00000000      34.71223769       1.16042319
       1.70000000      90.00000000      45.00000000      34.71247361       1.16043108
       1.80000000      90.00000000      45.00000000      34.71270951       1.16043897
       1.90000000      90.00000000      45.00000000      34.71294539       1.16044685
       2.00000000      90.00000000      45.00000000      34.71318125       1.16045474
       2.10000000      90.00000000      45.00000000      34.71341709       1.16046262
       2.20000000      90.00000000      45.00000000      34.71365290       1.16047050
       2.30000000      90.00000000      45.00000000      34.71388870       1.16047839
       2.40000000      90.00000000      45.00000000      34.71412447       1.16048627
       2.50000000      90.00000000      45.00000000      34.71436022       1.16049415
       2.60000000      90.00000000      45.00000000      34.71459594       1.16050203
       2.70000000      90.00000000      45.00000000      34.71483165       1.16050991
       2.80000000      90.00000000      45.00000000      34.71506733       1.16051779
       2.90000000      90.00000000      45.00000000      34.71530299       1.16052567
       3.00000000      90.00000000      45.00000000      34.71553863       1.16053354
       3.10000000      90.00000000      45.00000000      34.71577425       1.16054142
       3.20000000      90.00000000      45.00000000      34.71600985       1.16054930
       3.30000000      90.00000000      45.00000000      34.71624542       1.16055717
       3.40000000      90.00000000      45.00000000      34.71648097       1.16056505
       3.50000000      90.00000000      45.00000000      34.71671650       1.16057292
       3.60000000      90.00000000      45.00000000      34.71695201       1.16058079
       3.70000000      90.00000000      45.00000000      34.71718750       1.16058866
       3.80000000      90.00000000      45.00000000      34.71742297       1.16059654
       3.90000000      90.00000000      45.00000000      34.71765841       1.16060441
       4.00000000      90.00000000      45.00000000      34.71789383       1.16061228
       4.10000000      90.00000000      45.00000000      34.71812923       1.16062015
       4.20000000      90.00000000      45.00000000      34.71836461       1.16062802
       4.30000000      90.00000000      45.00000000      34.71859997       1.16063588
       4.40000000      90.00000000      45.00000000      34.71883530       1.16064375
       4.50000000      90.00000000      45.00000000      34.71907061       1.16065162
       4.60000000      90.00000000      45.00000000      34.71930590       1.16065948
       4.70000000      90.00000000      45.00000000      34.71954117       1.16066735
       4.80000000      90.00000000      45.00000000      34.71977642       1.16067521
       4.90000000      90.00000000      45.00000000      34.72001165       1.16068308
       5.00000000      90.00000000      45.00000000      34.72024685       1.16069094
       5.10000000      90.00000000      45.00000000      34.72048204       1.16069880
       5.20000000      90.00000000      45.00000000      34.72071720       1.16070666
       5.30000000      90.00000000      45.00000000      34.72095234       1.16071452
       5.40000000      90.00000000      45.00000000      34.72118745       1.16072238
       5.50000000      90.00000000      45.00000000      34.72142255       1.16073024
       5.60000000      90.00000000      45.00000000      34.72165763       1.16073810
       5.70000000      90.00000000      45.00000000      34.72189268       1.16074596
       5.80000000      90.00000000      45.00000000      34.72212771       1.16075381
       5.90000000      90.00000000      45.00000000      34.72236272       1.16076167
       6.00000000      90.00000000      45.00000000      34.72259771       1.16076953
       6.10000000      90.00000000      45.00000000      34.72283267       1.16077738
       6.20000000      90.00000000      45.00000000      34.72306762       1.16078524
       6.30000000      90.00000000      45.00000000      34.72330254       1.16079309
       6.40000000      90.00000000      45.00000000      34.72353744       1.16080094
       6.50000000      90.00000000      45.00000000      34.72377232       1.16080879
       6.60000000      90.00000000      45.00000000      34.72400718       1.16081665
       6.70000000      90.00000000      45.00000000      34.72424202       1.16082450
       6.80000000      90.00000000      45.00000000      34.72447684       1.16083235
       6.90000000      90.00000000      45.00000000      34.72471163       1.16084019
       7.00000000      90.00000000      45.00000000      34.72494640       1.16084804
       7.10000000      90.00000000      45.00000000      34.72518115       1.16085589
       7.20000000      90.00000000      45.00000000      34.72541588       1.16086374
       7.30000000      90.00000000      45.00000000      34.72565059       1.16087158
       7.40000000      90.00000000      45.00000000      34.72588528       1.16087943
       7.50000000      90.00000000      45.00000000      34.72611994       1.16088727
       7.60000000      90.00000000      45.00000000      34.72635459       1.16089512
       7.70000000      90.00000000      45.00000000      34.72658921       1.16090296
       7.80000000      90.00000000      45.00000000      34.72682381       1.16091080
       7.90000000      90.00000000      45.00000000      34.72705839       1.16091865
       8.00000000      90.00000000      45.00000000      34.72729295       1.16092649
       8.10000000      90.00000000      45.00000000      34.72752749       1.16093433
       8.20000000      90.00000000      45.00000000      34.72776200       1.16094217
       8.30000000      90.00000000      45.00000000      34.72799649       1.16095001
       8.40000000      90.00000000      45.00000000      34.72823097       1.16095785
       8.50000000      90.00000000      45.00000000      34.72846542       1.16096568
       8.60000000      90.00000000      45.00000000      34.72869985       1.16097352
       8.70000000      90.00000000      45.00000000      34.72893426       1.16098136
       8.80000000      90.00000000      45.00000000      34.72916864       1.16098919
       8.90000000      90.00000000      45.00000000      34.72940301       1.16099703
       9.00000000      90.00000000      45.00000000      34.72963735       1.16100486
       9.10000000      90.00000000      45.00000000      34.72987168       1.16101269
       9.20000000      90.00000000      45.00000000      34.73010598       1.16102053
       9.30000000      90.00000000      45.00000000      34.73034026       1.16102836
       9.40000000      90.00000000      45.00000000      34.73057452       1.16103619
       9.50000000      90.00000000      45.00000000      34.73080875       1.16104402
       9.60000000      90.00000000      45.00000000      34.73104297       1.16105185
       9.70000000      90.00000000      45.00000000      34.73127717       1.16105968
       9.80000000      90.00000000      45.00000000      34.73151134       1.16106751
       9.90000000      90.00000000      45.00000000      34.73174549       1.16107534
      10.00000000      90.00000000      45.00000000      34.73197962       1.16108316
      10.10000000      90.00000000      45.00000000      34.73221373       1.16109099
      10.20000000      90.00000000      45.00000000      34.73244782       1.16109881
      10.30000000      90.00000000      45.00000000      34.73268189       1.16110664
      10.40000000      90.00000000      45.00000000      34.73291594       1.16111446
      10.50000000      90.00000000      45.00000000      34.73314996       1.16112229
      10.60000000      90.00000000      45.00000000      34.73338396       1.16113011
      10.70000000      90.00000000      45.00000000      34.73361795       1.16113793
      10.80000000      90.00000000      45.00000000      34.73385191       1.16114575
      10.90000000      90.00000000      45.00000000      34.73408585       1.16115357
      11.00000000      90.00000000      45.00000000      34.73431977       1.16116139
      11.10000000      90.00000000      45.00000000      34.73455367       1.16116921
      11.20000000      90.00000000      45.00000000      34.73478754       1.16117703
      11.30000000      90.00000000      45.00000000      34.73502140       1.16118485
      11.40000000      90.00000000      45.00000000      34.73525523       1.16119267
      11.50000000      90.00000000      45.00000000      34.73548905       1.16120048
      11.60000000      90.00000000      45.00000000      34.73572284       1.16120830
      11.70000000      90.00000000      45.00000000      34.73595661       1.16121611
      11.80000000      90.00000000      45.00000000      34.73619036       1.16122393
      11.90000000      90.00000000      45.00000000      34.73642409       1.16123174
      12.00000000      90.00000000      45.00000000      34.73665779       1.16123955
      12.10000000      90.00000000      45.00000000      34.73689148       1.16124736
      12.20000000      90.00000000      45.00000000      34.73712515       1.16125518
      12.30000000      90.00000000      45.00000000      34.73735879       1.16126299
      12.40000000      90.00000000      45.00000000      34.73759241       1.16127080
      12.50000000      90.00000000      45.00000000      34.73782602       1.16127861
      12.60000000      90.00000000      45.00000000      34.73805960       1.16128641
      12.70000000      90.00000000      45.00000000      34.73829316       1.16129422
      12.80000000      90.00000000      45.00000000      34.73852670       1.16130203
      12.90000000      90.00000000      45.00000000      34.73876022       1.16130984
      13.00000000      90.00000000      45.00000000      34.73899371       1.16131764
      13.10000000      90.00000000      45.00000000      34.73922719       1.16132545
      13.20000000      90.00000000      45.00000000      34.73946064       1.16133325
      13.30000000      90.00000000      45.00000000      34.73969408       1.16134106
      13.40000000      90.00000000      45.00000000      34.73992749       1.16134886
      13.50000000      90.00000000      45.00000000      34.74016088       1.16135666
      13.60000000      90.00000000      45.00000000      34.74039426       1.16136446
      13.70000000      90.00000000      45.00000000      34.74062761       1.16137226
      13.80000000      90.00000000      45.00000000      34.74086094       1.16138006
      13.90000000      90.00000000      45.00000000      34.74109424       1.16138786
      14.00000000      90.00000000      45.00000000      34.74132753       1.16139566
      14.10000000      90.00000000      45.00000000      34.74156080       1.16140346
      14.20000000      90.00000000      45.00000000      34.74179404       1.16141126
      14.30000000      90.00000000      45.00000000      34.74202727       1.16141905
      14.40000000      90.00000000      45.00000000      34.74226047       1.16142685
      14.50000000      90.00000000      45.00000000      34.74249366       1.16143464
      14.60000000      90.00000000      45.00000000      34.74272682       1.16144244
      14.70000000      90.00000000      45.00000000      34.74295996       1.16145023
      14.80000000      90.00000000      45.00000000      34.74319308       1.16145803
      14.90000000      90.00000000      45.00000000      34.74342618       1.16146582
      15.00000000      90.00000000      45.00000000      34.74365926       1.16147361
      15.10000000      90.00000000      45.00000000      34.74389232       1.16148140
      15.20000000      90.00000000      45.00000000      34.74412535       1.16148919
      15.30000000      90.00000000      45.00000000      34.74435837       1.16149698
      15.40000000      90.00000000      45.00000000      34.74459137       1.16150477
      15.50000000      90.00000000      45.00000000      34.74482434       1.16151256
      15.60000000      90.00000000      45.00000000      34.74505729       1.16152035
      15.70000000      90.00000000      45.00000000      34.74529023       1.16152813
      15.80000000      90.00000000      45.00000000      34.74552314       1.16153592
      15.90000000      90.00000000      45.00000000      34.74575603       1.16154370
      16.00000000      90.00000000      45.00000000      34.74598890       1.16155149
      16.10000000      90.00000000      45.00000000      34.74622175       1.16155927
      16.20000000      90.00000000      45.00000000      34.74645458       1.16156706
      16.30000000      90.00000000      45.00000000      34.74668739       1.16157484
      16.40000000      90.00000000      45.00000000      34.74692018       1.16158262
      16.50000000      90.00000000      45.00000000      34.74715294       1.16159040
      16.60000000      90.00000000      45.00000000      34.74738569       1.16159818
      16.70000000      90.00000000      45.00000000      34.74761842       1.16160596
      16.80000000      90.00000000      45.00000000      34.74785112       1.16161374
      16.90000000      90.00000000      45.00000000      34.74808381       1.16162152
      17.00000000      90.00000000      45.00000000      34.74831647       1.16162930
      17.10000000      90.00000000      45.00000000      34.74854911       1.16163708
      17.20000000      90.00000000      45.00000000      34.74878173       1.16164485
      17.30000000      90.00000000      45.00000000      34.74901434       1.16165263
      17.40000000      90.00000000      45.00000000      34.74924692       1.16166040
      17.50000000      90.00000000      45.00000000      34.74947948       1.16166818
      17.60000000      90.00000000      45.00000000      34.74971202       1.16167595
      17.70000000      90.00000000      45.00000000      34.74994454       1.16168373
      17.80000000      90.00000000      45.00000000      34.75017703       1.16169150
      17.90000000      90.00000000      45.00000000      34.75040951       1.16169927
      18.00000000      90.00000000      45.00000000      34.75064197       1.16170704
      18.10000000      90.00000000      45.00000000      34.75087441       1.16171481
      18.20000000      90.00000000      45.00000000      34.75110682       1.16172258
      18.30000000      90.00000000      45.00000000      34.75133922       1.16173035
      18.40000000      90.00000000      45.00000000      34.75157159       1.16173812
      18.50000000      90.00000000      45.00000000      34.75180395       1.16174589
      18.60000000      90.00000000      45.00000000      34.75203628       1.16175365
      18.70000000      90.00000000      45.00000000      34.75226859       1.16176142
      18.80000000      90.00000000      45.00000000      34.75250089       1.16176918
      18.90000000      90.00000000      45.00000000      34.75273316       1.16177695
      19.00000000      90.00000000      45.00000000      34.75296541       1.16178471
      19.10000000      90.00000000      45.00000000      34.75319764       1.16179248
      19.20000000      90.00000000      45.00000000      34.75342985       1.16180024
      19.30000000      90.00000000      45.00000000      34.75366204       1.16180800
      19.40000000      90.00000000      45.00000000      34.75389421       1.16181576
      19.50000000      90.00000000      45.00000000      34.75412636       1.16182352
      19.60000000      90.00000000      45.00000000      34.75435849       1.16183128
      19.70000000      90.00000000      45.00000000      34.75459060       1.16183904
      19.80000000      90.00000000      45.00000000      34.75482269       1.16184680
      19.90000000      90.00000000      45.00000000      34.75505476       1.16185456
      20.00000000      90.00000000      45.00000000      34.75528680       1.16186232
      20.10000000      90.00000000      45.00000000      34.75551883       1.16187007
      20.20000000      90.00000000      45.00000000      34.75575084       1.16187783
      20.30000000      90.00000000      45.00000000      34.75598282       1.16188558
      20.40000000      90.00000000      45.00000000      34.75621479       1.16189334
      20.50000000      90.00000000      45.00000000      34.75644673       1.16190109
      20.60000000      90.00000000      45.00000000      34.75667866       1.16190885
      20.70000000      90.00000000      45.00000000      34.75691056       1.16191660
      20.80000000      90.00000000      45.00000000      34.75714245       1.16192435
      20.90000000      90.00000000      45.00000000      34.75737431       1.16193210
      21.00000000      90.00000000      45.00000000      34.75760615       1.16193985
      21.10000000      90.00000000      45.00000000      34.75783798       1.16194760
      21.20000000      90.00000000      45.00000000      34.75806978       1.16195535
      21.30000000      90.00000000      45.00000000      34.75830156       1.16196310
      21.40000000      90.00000000      45.00000000      34.75853332       1.16197085
      21.50000000      90.00000000      45.00000000      34.75876506       1.16197859
      21.60000000      90.00000000      45.00000000      34.75899679       1.16198634
      21.70000000      90.00000000      45.00000000      34.75922849       1.16199409
      21.80000000      90.00000000      45.00000000      34.75946017       1.16200183
      21.90000000      90.00000000      45.00000000      34.75969183       1.16200958
      22.00000000      90.00000000      45.00000000      34.75992347       1.16201732
      22.10000000      90.00000000      45.00000000      34.76015509       1.16202506
      22.20000000      90.00000000      45.00000000      34.76038669       1.16203280
      22.30000000      90.00000000      45.00000000      34.76061827       1.16204055
      22.40000000      90.00000000      45.00000000      34.76084983       1.16204829
      22.50000000      90.00000000      45.00000000      34.76108137       1.16205603
      22.60000000      90.00000000      45.00000000      34.76131289       1.16206377
      22.70000000      90.00000000      45.00000000      34.76154439       1.16207151
      22.80000000      90.00000000      45.00000000      34.76177586       1.16207924
      22.90000000      90.00000000      45.00000000      34.76200732       1.16208698
      23.00000000      90.00000000      45.00000000      34.76223876       1.16209472
      23.10000000      90.00000000      45.00000000      34.76247018       1.16210246
      23.20000000      90.00000000      45.00000000      34.76270158       1.16211019
      23.30000000      90.00000000      45.00000000      34.76293295       1.16211793
      23.40000000      90.00000000      45.00000000      34.76316431       1.16212566
      23.50000000      90.00000000      45.00000000      34.76339565       1.16213339
      23.60000000      90.00000000      45.00000000      34.76362697       1.16214113
      23.70000000      90.00000000      45.00000000      34.76385826       1.16214886
      23.80000000      90.00000000      45.00000000      34.76408954       1.16215659
      23.90000000      90.00000000      45.00000000      34.76432080       1.16216432
      24.00000000      90.00000000      45.00000000      34.76455203       1.16217205
      24.10000000      90.00000000      45.00000000      34.76478325       1.16217978
      24.20000000      90.00000000      45.00000000      34.76501445       1.16218751
      24.30000000      90.00000000      45.00000000      34.76524563       1.16219524
      24.40000000      90.00000000      45.00000000      34.76547678       1.16220297
      24.50000000      90.00000000      45.00000000      34.76570792       1.16221069
      24.60000000      90.00000000      45.00000000      34.76593903       1.16221842
      24.70000000      90.00000000      45.00000000      34.76617013       1.16222614
      24.80000000      90.00000000      45.00000000      34.76640121       1.16223387
      24.90000000      90.00000000      45.00000000      34.76663226       1.16224159
      25.00000000      90.00000000      45.00000000      34.76686330       1.16224932
      25.10000000      90.00000000      45.00000000      34.76709432       1.16225704
      25.20000000      90.00000000      45.00000000      34.76732531       1.16226476
      25.30000000      90.00000000      45.00000000      34.76755629       1.16227248
      25.40000000      90.00000000      45.00000000      34.76778725       1.16228020
      25.50000000      90.00000000      45.00000000      34.76801818       1.16228792
      25.60000000      90.00000000      45.00000000      34.76824910       1.16229564
      25.70000000      90.00000000      45.00000000      34.76848000       1.16230336
      25.80000000      90.00000000      45.00000000      34.76871087       1.16231108
      25.90000000      90.00000000      45.00000000      34.76894173       1.16231880
      26.00000000      90.00000000      45.00000000      34.76917257       1.16232652
      26.10000000      90.00000000      45.00000000      34.76940338       1.16233423
      26.20000000      90.00000000      45.00000000      34.76963418       1.16234195
      26.30000000      90.00000000      45.00000000      34.76986496       1.16234966
      26.40000000      90.00000000      45.00000000      34.77009571       1.16235738
      26.50000000      90.00000000      45.00000000      34.77032645       1.16236509
      26.60000000      90.00000000      45.00000000      34.77055717       1.16237280
      26.70000000      90.00000000      45.00000000      34.77078787       1.16238051
      26.80000000      90.00000000      45.00000000      34.77101854       1.16238823
      26.90000000      90.00000000      45.00000000      34.77124920       1.16239594
      27.00000000      90.00000000      45.00000000      34.77147984       1.16240365
      27.10000000      90.00000000      45.00000000      34.77171046       1.16241136
      27.20000000      90.00000000      45.00000000      34.77194106       1.16241907
      27.30000000      90.00000000      45.00000000      34.77217164       1.16242677
      27.40000000      90.00000000      45.00000000      34.77240219       1.16243448
      27.50000000      90.00000000      45.00000000      34.77263273       1.16244219
      27.60000000      90.00000000      45.00000000      34.77286325       1.16244989
      27.70000000      90.00000000      45.00000000      34.77309375       1.16245760
      27.80000000      90.00000000      45.00000000      34.77332423       1.16246530
      27.90000000      90.00000000      45.00000000      34.77355469       1.16247301
      28.00000000      90.00000000      45.00000000      34.77378513       1.16248071
      28.10000000      90.00000000      45.00000000      34.77401555       1.16248842
      28.20000000      90.00000000      45.00000000      34.77424595       1.16249612
      28.30000000      90.00000000      45.00000000      34.77447633       1.16250382
      28.40000000      90.00000000      45.00000000      34.77470669       1.16251152
      28.50000000      90.00000000      45.00000000      34.77493704       1.16251922
      28.60000000      90.00000000      45.00000000      34.77516736       1.16252692
      28.70000000      90.00000000      45.00000000      34.77539766       1.16253462
      28.80000000      90.00000000      45.00000000      34.77562794       1.16254232
      28.90000000      90.00000000      45.00000000      34.77585820       1.16255001
      29.00000000      90.00000000      45.00000000      34.77608845       1.16255771
      29.10000000      90.00000000      45.00000000      34.77631867       1.16256541
      29.20000000      90.00000000      45.00000000      34.77654887       1.16257310
      29.30000000      90.00000000      45.00000000      34.77677906       1.16258080
      29.40000000      90.00000000      45.00000000      34.77700922       1.16258849
      29.50000000      90.00000000      45.00000000      34.77723937       1.16259619
      29.60000000      90.00000000      45.00000000      34.77746949       1.16260388
      29.70000000      90.00000000      45.00000000      34.77769960       1.16261157
      29.80000000      90.00000000      45.00000000      34.77792968       1.16261926
      29.90000000      90.00000000      45.00000000      34.77815975       1.16262695
      30.00000000      90.00000000      45.00000000      34.77838980       1.16263465
      30.10000000      90.00000000      45.00000000      34.77861982       1.16264233
      30.20000000      90.00000000      45.00000000      34.77884983       1.16265002
      30.30000000      90.00000000      45.00000000      34.77907982       1.16265771
      30.40000000      90.00000000      45.00000000      34.77930979       1.16266540
      30.50000000      90.00000000      45.00000000      34.77953974       1.16267309
      30.60000000      90.00000000      45.00000000      34.77976966       1.16268077
      30.70000000      90.00000000      45.00000000      34.77999957       1.16268846
      30.80000000      90.00000000      45.00000000      34.78022946       1.16269614
      30.90000000      90.00000000      45.00000000      34.78045934       1.16270383
      31.00000000      90.00000000      45.00000000      34.78068919       1.16271151
      31.10000000      90.00000000      45.00000000      34.78091902       1.16271920
      31.20000000      90.00000000      45.00000000      34.78114883       1.16272688
      31.30000000      90.00000000      45.00000000      34.78137862       1.16273456
      31.40000000      90.00000000      45.00000000      34.78160840       1.16274224
      31.50000000      90.00000000      45.00000000      34.78183815       1.16274992
      31.60000000      90.00000000      45.00000000      34.78206788       1.16275760
      31.70000000      90.00000000      45.00000000      34.78229760       1.16276528
      31.80000000      90.00000000      45.00000000      34.78252729       1.16277296
      31.90000000      90.00000000      45.00000000      34.78275697       1.16278064
      32.00000000      90.00000000      45.00000000      34.78298663       1.16278832
      32.10000000      90.00000000      45.00000000      34.78321626       1.16279599
      32.20000000      90.00000000      45.00000000      34.78344588       1.16280367
      32.30000000      90.00000000      45.00000000      34.78367548       1.16281134
      32.40000000      90.00000000      45.00000000      34.78390506       1.16281902
      32.50000000      90.00000000      45.00000000      34.78413462       1.16282669
      32.60000000      90.00000000      45.00000000      34.78436416       1.16283437
      32.70000000      90.00000000      45.00000000      34.78459368       1.16284204
      32.80000000      90.00000000      45.00000000      34.78482318       1.16284971
      32.90000000      90.00000000      45.00000000      34.78505266       1.16285738
      33.00000000      90.00000000      45.00000000      34.78528213       1.16286505
      33.10000000      90.00000000      45.00000000      34.78551157       1.16287272
      33.20000000      90.00000000      45.00000000      34.78574099       1.16288039
      33.30000000      90.00000000      45.00000000      34.78597040       1.16288806
      33.40000000      90.00000000      45.00000000      34.78619978       1.16289573
      33.50000000      90.00000000      45.00000000      34.78642915       1.16290340
      33.60000000      90.00000000      45.00000000      34.78665850       1.16291107
      33.70000000      90.00000000      45.00000000      34.78688782       1.16291873
      33.80000000      90.00000000      45.00000000      34.78711713       1.16292640
      33.90000000      90.00000000      45.00000000      34.78734642       1.16293406
      34.00000000      90.00000000      45.00000000      34.78757569       1.16294173
      34.10000000      90.00000000      45.00000000      34.78780494       1.16294939
      34.20000000      90.00000000      45.00000000      34.78803417       1.16295705
      34.30000000      90.00000000      45.00000000      34.78826339       1.16296472
      34.40000000      90.00000000      45.00000000      34.78849258       1.16297238
      34.50000000      90.00000000      45.00000000      34.78872175       1.16298004
      34.60000000      90.00000000      45.00000000      34.78895091       1.16298770
      34.70000000      90.00000000      45.00000000      34.78918004       1.16299536
      34.80000000      90.00000000      45.00000000      34.78940916       1.16300302
      34.90000000      90.00000000      45.00000000      34.78963825       1.16301068
      35.00000000      90.00000000      45.00000000      34.78986733       1.16301834
      35.10000000      90.00000000      45.00000000      34.79009639       1.16302599
      35.20000000      90.00000000      45.00000000      34.79032543       1.16303365
      35.30000000      90.00000000      45.00000000      34.79055445       1.16304131
      35.40000000      90.00000000      45.00000000      34.79078345       1.16304896
      35.50000000      90.00000000      45.00000000      34.79101243       1.16305662
      35.60000000      90.00000000      45.00000000      34.79124140       1.16306427
      35.70000000      90.00000000      45.00000000      34.79147034       1.16307193
      35.80000000      90.00000000      45.00000000      34.79169926       1.16307958
      35.90000000      90.00000000      45.00000000      34.79192817       1.16308723
      36.00000000      90.00000000      45.00000000      34.79215706       1.16309488
      36.10000000      90.00000000      45.00000000      34.79238592       1.16310253
      36.20000000      90.00000000      45.00000000      34.79261477       1.16311018
      36.30000000      90.00000000      45.00000000      34.79284360       1.16311783
      36.40000000      90.00000000      45.00000000      34.79307241       1.16312548
      36.50000000      90.00000000      45.00000000      34.79330120       1.16313313
      36.60000000      90.00000000      45.00000000      34.79352997       1.16314078
      36.70000000      90.00000000      45.00000000      34.79375873       1.16314843
      36.80000000      90.00000000      45.00000000      34.79398746       1.16315607
      36.90000000      90.00000000      45.00000000      34.79421618       1.16316372
      37.00000000      90.00000000      45.00000000      34.79444487       1.16317136
      37.10000000      90.00000000      45.00000000      34.79467355       1.16317901
      37.20000000      90.00000000      45.00000000      34.79490221       1.16318665
      37.30000000      90.00000000      45.00000000      34.79513085       1.16319430
      37.40000000      90.00000000      45.00000000      34.79535947       1.16320194
      37.50000000      90.00000000      45.00000000      34.79558807       1.16320958
      37.60000000      90.00000000      45.00000000      34.79581665       1.16321722
      37.70000000      90.00000000      45.00000000      34.79604521       1.16322486
      37.80000000      90.00000000      45.00000000      34.79627376       1.16323250
      37.90000000      90.00000000      45.00000000      34.79650228       1.16324014
      38.00000000      90.00000000      45.00000000      34.79673079       1.16324778
      38.10000000      90.00000000      45.00000000      34.79695928       1.16325542
      38.20000000      90.00000000      45.00000000      34.79718774       1.16326306
      38.30000000      90.00000000      45.00000000      34.79741619       1.16327069
      38.40000000      90.00000000      45.00000000      34.79764462       1.16327833
      38.50000000      90.00000000      45.00000000      34.79787304       1.16328597
      38.60000000      90.00000000      45.00000000      34.79810143       1.16329360
      38.70000000      90.00000000      45.00000000      34.79832980       1.16330124
      38.80000000      90.00000000      45.00000000      34.79855816       1.16330887
      38.90000000      90.00000000      45.00000000      34.79878650       1.16331650
      39.00000000      90.00000000      45.00000000      34.79901481       1.16332414
      39.10000000      90.00000000      45.00000000      34.79924311       1.16333177
      39.20000000      90.00000000      45.00000000      34.79947139       1.16333940
      39.30000000      90.00000000      45.00000000      34.79969965       1.16334703
      39.40000000      90.00000000      45.00000000      34.79992790       1.16335466
      39.50000000      90.00000000      45.00000000      34.80015612       1.16336229
      39.60000000      90.00000000      45.00000000      34.80038432       1.16336992
      39.70000000      90.00000000      45.00000000      34.80061251       1.16337755
      39.80000000      90.00000000      45.00000000      34.80084068       1.16338517
      39.90000000      90.00000000      45.00000000      34.80106883       1.16339280
      40.00000000      90.00000000      45.00000000      34.80129695       1.16340043
