 # applied field (T), theta (degree), phi (degree), abs [muB/unitcell], abs [T]
       0.00000000       0.00000000       0.00000000      35.70310697       1.19354776
       0.10000000       0.39845938     360.00000000      35.70310127       1.19354757
       0.20000000       0.79691833     360.00000000      35.70308369       1.19354698
       0.30000000       1.19537843     360.00000000      35.70305437       1.19354600
       0.40000000       1.65065774     360.00000000      35.70300542       1.19354436
       0.50000000       2.04912173     360.00000000      35.70295074       1.19354253
       0.60000000       2.44758828     360.00000000      35.70288437       1.19354031
       0.70000000       2.84605787     360.00000000      35.70280633       1.19353771
       0.80000000       3.24453101     360.00000000      35.70271665       1.19353471
       0.90000000       3.64300819     360.00000000      35.70261535       1.19353132
