 # applied field (T), theta (degree), phi (degree), abs [muB/unitcell], abs [T]
       0.00000000       0.00000000       0.00000000      34.76465901       1.17012053
       0.10000000       0.80006496     360.00000000      34.76461486       1.17011904
       0.20000000       1.65722718     360.00000000      34.76446918       1.17011414
       0.30000000       2.45730291     360.00000000      34.76424215       1.17010650
       0.40000000       3.25738904     360.00000000      34.76392723       1.17009590
       0.50000000       4.11458557     360.00000000      34.76349152       1.17008123
       0.60000000       4.91470406     360.00000000      34.76299541       1.17006453
       0.70000000       5.77194325     360.00000000      34.76236612       1.17004335
       0.80000000       6.57210885     360.00000000      34.76169087       1.17002063
       0.90000000       7.42940665     360.00000000      34.76087056       1.16999302
       1.00000000       8.22963432     360.00000000      34.76001887       1.16996435
       1.10000000       9.08700694     360.00000000      34.75901072       1.16993042
       1.20000000       9.94442474     360.00000000      34.75790672       1.16989326
       1.30000000      10.80189210     360.00000000      34.75670792       1.16985291
       1.40000000      11.65941342     360.00000000      34.75541541       1.16980940
       1.50000000      12.51699302     360.00000000      34.75403032       1.16976278
       1.60000000      13.37463518     360.00000000      34.75255382       1.16971309
       1.70000000      14.28947808     360.00000000      34.75087581       1.16965661
       1.80000000      15.14726287     360.00000000      34.74921396       1.16960067
       1.90000000      16.06226738     360.00000000      34.74734054       1.16953762
       2.00000000      16.97736220     360.00000000      34.74536834       1.16947124
       2.10000000      17.89255164     360.00000000      34.74329884       1.16940158
       2.20000000      18.80783973     360.00000000      34.74113353       1.16932870
       2.30000000      19.78040068     360.00000000      34.73872485       1.16924763
       2.40000000      20.69590365     360.00000000      34.73636643       1.16916825
       2.50000000      21.66870040     360.00000000      34.73375547       1.16908037
       2.60000000      22.69881661     360.00000000      34.73087501       1.16898342
       2.70000000      23.67187602     360.00000000      34.72805641       1.16888855
       2.80000000      24.70227552     360.00000000      34.72495969       1.16878432
       2.90000000      25.79004186     360.00000000      34.72156816       1.16867016
       3.00000000      26.82074678     360.00000000      34.71825130       1.16855852
       3.10000000      27.90883636     360.00000000      34.71463197       1.16843670
       3.20000000      29.05433629     360.00000000      34.71069425       1.16830416
       3.30000000      30.20001670     360.00000000      34.70663423       1.16816751
       3.40000000      31.40313830     360.00000000      34.70223756       1.16801953
       3.50000000      32.60644979     360.00000000      34.69771406       1.16786727
       3.60000000      33.86722748     360.00000000      34.69283827       1.16770316
       3.70000000      35.18549034     360.00000000      34.68759772       1.16752677
       3.80000000      36.50395317     360.00000000      34.68222409       1.16734591
       3.90000000      37.93722393     360.00000000      34.67622951       1.16714414
       4.00000000      39.42802054     360.00000000      34.66984457       1.16692923
       4.10000000      40.91902260     360.00000000      34.66332626       1.16670984
       4.20000000      42.58221601     360.00000000      34.65589969       1.16645987
       4.30000000      44.30296232     360.00000000      34.64808244       1.16619676
       4.40000000      46.13860881     360.00000000      34.63962062       1.16591194
       4.50000000      48.08917175     360.00000000      34.63053384       1.16560610
       4.60000000      50.26939393     360.00000000      34.62031149       1.16526203
       4.70000000      52.62195710     360.00000000      34.60929376       1.16489119
       4.80000000      55.26165386     360.00000000      34.59705571       1.16447928
       4.90000000      58.24595595     360.00000000      34.58354595       1.16402456
       5.00000000      61.80456427     360.00000000      34.56814309       1.16350613
       5.10000000      66.16734934     360.00000000      34.55075650       1.16292093
       5.20000000      72.19596878     360.00000000      34.53034743       1.16223399
       5.30000000      84.37111273     360.00000000      34.50572580       1.16140527
       5.40000000      90.00000000     360.00000000      34.50316898       1.16131921
       5.50000000      90.00000000     360.00000000      34.50346358       1.16132913
       5.60000000      90.00000000     360.00000000      34.50375815       1.16133904
       5.70000000      90.00000000     360.00000000      34.50405268       1.16134895
       5.80000000      90.00000000     360.00000000      34.50434718       1.16135887
       5.90000000      90.00000000     360.00000000      34.50464165       1.16136878
       6.00000000      90.00000000     360.00000000      34.50493608       1.16137869
       6.10000000      90.00000000     360.00000000      34.50523048       1.16138860
       6.20000000      90.00000000     360.00000000      34.50552485       1.16139850
       6.30000000      90.00000000     360.00000000      34.50581918       1.16140841
       6.40000000      90.00000000     360.00000000      34.50611348       1.16141832
       6.50000000      90.00000000     360.00000000      34.50640775       1.16142822
       6.60000000      90.00000000     360.00000000      34.50670198       1.16143812
       6.70000000      90.00000000     360.00000000      34.50699618       1.16144803
       6.80000000      90.00000000     360.00000000      34.50729034       1.16145793
       6.90000000      90.00000000     360.00000000      34.50758448       1.16146783
       7.00000000      90.00000000     360.00000000      34.50787858       1.16147773
       7.10000000      90.00000000     360.00000000      34.50817264       1.16148762
       7.20000000      90.00000000     360.00000000      34.50846668       1.16149752
       7.30000000      90.00000000     360.00000000      34.50876068       1.16150742
       7.40000000      90.00000000     360.00000000      34.50905465       1.16151731
       7.50000000      90.00000000     360.00000000      34.50934858       1.16152720
       7.60000000      90.00000000     360.00000000      34.50964248       1.16153710
       7.70000000      90.00000000     360.00000000      34.50993637       1.16154699
       7.80000000      90.00000000     360.00000000      34.51023025       1.16155688
       7.90000000      90.00000000     360.00000000      34.51052410       1.16156677
       8.00000000      90.00000000     360.00000000      34.51081791       1.16157666
       8.10000000      90.00000000     360.00000000      34.51111169       1.16158655
       8.20000000      90.00000000     360.00000000      34.51140544       1.16159643
       8.30000000      90.00000000     360.00000000      34.51169915       1.16160632
       8.40000000      90.00000000     360.00000000      34.51199284       1.16161621
       8.50000000      90.00000000     360.00000000      34.51228649       1.16162609
       8.60000000      90.00000000     360.00000000      34.51258010       1.16163597
       8.70000000      90.00000000     360.00000000      34.51287368       1.16164585
       8.80000000      90.00000000     360.00000000      34.51316723       1.16165573
       8.90000000      90.00000000     360.00000000      34.51346075       1.16166561
       9.00000000      90.00000000     360.00000000      34.51375423       1.16167549
       9.10000000      90.00000000     360.00000000      34.51404768       1.16168537
       9.20000000      90.00000000     360.00000000      34.51434110       1.16169524
       9.30000000      90.00000000     360.00000000      34.51463449       1.16170512
       9.40000000      90.00000000     360.00000000      34.51492784       1.16171499
       9.50000000      90.00000000     360.00000000      34.51522116       1.16172487
       9.60000000      90.00000000     360.00000000      34.51551444       1.16173474
       9.70000000      90.00000000     360.00000000      34.51580769       1.16174461
       9.80000000      90.00000000     360.00000000      34.51610091       1.16175448
       9.90000000      90.00000000     360.00000000      34.51639410       1.16176434
      10.00000000      90.00000000     360.00000000      34.51668725       1.16177421
      10.10000000      90.00000000     360.00000000      34.51698038       1.16178408
      10.20000000      90.00000000     360.00000000      34.51727346       1.16179394
      10.30000000      90.00000000     360.00000000      34.51756652       1.16180381
      10.40000000      90.00000000     360.00000000      34.51785954       1.16181367
      10.50000000      90.00000000     360.00000000      34.51815253       1.16182353
      10.60000000      90.00000000     360.00000000      34.51844549       1.16183339
      10.70000000      90.00000000     360.00000000      34.51873841       1.16184325
      10.80000000      90.00000000     360.00000000      34.51903130       1.16185311
      10.90000000      90.00000000     360.00000000      34.51932416       1.16186297
      11.00000000      90.00000000     360.00000000      34.51961699       1.16187282
      11.10000000      90.00000000     360.00000000      34.51990978       1.16188268
      11.20000000      90.00000000     360.00000000      34.52020255       1.16189253
      11.30000000      90.00000000     360.00000000      34.52049528       1.16190238
      11.40000000      90.00000000     360.00000000      34.52078797       1.16191224
      11.50000000      90.00000000     360.00000000      34.52108064       1.16192209
      11.60000000      90.00000000     360.00000000      34.52137327       1.16193194
      11.70000000      90.00000000     360.00000000      34.52166587       1.16194178
      11.80000000      90.00000000     360.00000000      34.52195844       1.16195163
      11.90000000      90.00000000     360.00000000      34.52225098       1.16196148
      12.00000000      90.00000000     360.00000000      34.52254348       1.16197132
      12.10000000      90.00000000     360.00000000      34.52283595       1.16198117
      12.20000000      90.00000000     360.00000000      34.52312840       1.16199101
      12.30000000      90.00000000     360.00000000      34.52342080       1.16200085
      12.40000000      90.00000000     360.00000000      34.52371318       1.16201069
      12.50000000      90.00000000     360.00000000      34.52400553       1.16202053
      12.60000000      90.00000000     360.00000000      34.52429784       1.16203037
      12.70000000      90.00000000     360.00000000      34.52459012       1.16204021
      12.80000000      90.00000000     360.00000000      34.52488238       1.16205005
      12.90000000      90.00000000     360.00000000      34.52517460       1.16205988
      13.00000000      90.00000000     360.00000000      34.52546678       1.16206972
      13.10000000      90.00000000     360.00000000      34.52575894       1.16207955
      13.20000000      90.00000000     360.00000000      34.52605107       1.16208938
      13.30000000      90.00000000     360.00000000      34.52634316       1.16209921
      13.40000000      90.00000000     360.00000000      34.52663522       1.16210904
      13.50000000      90.00000000     360.00000000      34.52692726       1.16211887
      13.60000000      90.00000000     360.00000000      34.52721927       1.16212870
      13.70000000      90.00000000     360.00000000      34.52751125       1.16213853
      13.80000000      90.00000000     360.00000000      34.52780320       1.16214836
      13.90000000      90.00000000     360.00000000      34.52809511       1.16215818
      14.00000000      90.00000000     360.00000000      34.52838700       1.16216801
      14.10000000      90.00000000     360.00000000      34.52867886       1.16217783
      14.20000000      90.00000000     360.00000000      34.52897068       1.16218765
      14.30000000      90.00000000     360.00000000      34.52926248       1.16219747
      14.40000000      90.00000000     360.00000000      34.52955424       1.16220729
      14.50000000      90.00000000     360.00000000      34.52984597       1.16221711
      14.60000000      90.00000000     360.00000000      34.53013767       1.16222693
      14.70000000      90.00000000     360.00000000      34.53042935       1.16223675
      14.80000000      90.00000000     360.00000000      34.53072099       1.16224656
      14.90000000      90.00000000     360.00000000      34.53101260       1.16225638
      15.00000000      90.00000000     360.00000000      34.53130418       1.16226619
      15.10000000      90.00000000     360.00000000      34.53159573       1.16227601
      15.20000000      90.00000000     360.00000000      34.53188725       1.16228582
      15.30000000      90.00000000     360.00000000      34.53217874       1.16229563
      15.40000000      90.00000000     360.00000000      34.53247020       1.16230544
      15.50000000      90.00000000     360.00000000      34.53276163       1.16231525
      15.60000000      90.00000000     360.00000000      34.53305303       1.16232506
      15.70000000      90.00000000     360.00000000      34.53334439       1.16233486
      15.80000000      90.00000000     360.00000000      34.53363573       1.16234467
      15.90000000      90.00000000     360.00000000      34.53392704       1.16235447
      16.00000000      90.00000000     360.00000000      34.53421832       1.16236428
      16.10000000      90.00000000     360.00000000      34.53450957       1.16237408
      16.20000000      90.00000000     360.00000000      34.53480079       1.16238388
      16.30000000      90.00000000     360.00000000      34.53509199       1.16239368
      16.40000000      90.00000000     360.00000000      34.53538315       1.16240348
      16.50000000      90.00000000     360.00000000      34.53567428       1.16241328
      16.60000000      90.00000000     360.00000000      34.53596538       1.16242308
      16.70000000      90.00000000     360.00000000      34.53625646       1.16243288
      16.80000000      90.00000000     360.00000000      34.53654750       1.16244267
      16.90000000      90.00000000     360.00000000      34.53683852       1.16245247
      17.00000000      90.00000000     360.00000000      34.53712951       1.16246226
      17.10000000      90.00000000     360.00000000      34.53742046       1.16247206
      17.20000000      90.00000000     360.00000000      34.53771139       1.16248185
      17.30000000      90.00000000     360.00000000      34.53800229       1.16249164
      17.40000000      90.00000000     360.00000000      34.53829316       1.16250143
      17.50000000      90.00000000     360.00000000      34.53858401       1.16251122
      17.60000000      90.00000000     360.00000000      34.53887482       1.16252101
      17.70000000      90.00000000     360.00000000      34.53916561       1.16253080
      17.80000000      90.00000000     360.00000000      34.53945637       1.16254058
      17.90000000      90.00000000     360.00000000      34.53974710       1.16255037
      18.00000000      90.00000000     360.00000000      34.54003780       1.16256015
      18.10000000      90.00000000     360.00000000      34.54032848       1.16256994
      18.20000000      90.00000000     360.00000000      34.54061912       1.16257972
      18.30000000      90.00000000     360.00000000      34.54090974       1.16258950
      18.40000000      90.00000000     360.00000000      34.54120033       1.16259928
      18.50000000      90.00000000     360.00000000      34.54149090       1.16260906
      18.60000000      90.00000000     360.00000000      34.54178143       1.16261884
      18.70000000      90.00000000     360.00000000      34.54207194       1.16262862
      18.80000000      90.00000000     360.00000000      34.54236243       1.16263840
      18.90000000      90.00000000     360.00000000      34.54265288       1.16264817
      19.00000000      90.00000000     360.00000000      34.54294331       1.16265795
      19.10000000      90.00000000     360.00000000      34.54323371       1.16266772
      19.20000000      90.00000000     360.00000000      34.54352409       1.16267750
      19.30000000      90.00000000     360.00000000      34.54381444       1.16268727
      19.40000000      90.00000000     360.00000000      34.54410477       1.16269704
      19.50000000      90.00000000     360.00000000      34.54439507       1.16270681
      19.60000000      90.00000000     360.00000000      34.54468534       1.16271658
      19.70000000      90.00000000     360.00000000      34.54497559       1.16272635
      19.80000000      90.00000000     360.00000000      34.54526581       1.16273612
      19.90000000      90.00000000     360.00000000      34.54555601       1.16274589
      20.00000000      90.00000000     360.00000000      34.54584618       1.16275565
      20.10000000      90.00000000     360.00000000      34.54613633       1.16276542
      20.20000000      90.00000000     360.00000000      34.54642646       1.16277518
      20.30000000      90.00000000     360.00000000      34.54671656       1.16278495
      20.40000000      90.00000000     360.00000000      34.54700663       1.16279471
      20.50000000      90.00000000     360.00000000      34.54729669       1.16280447
      20.60000000      90.00000000     360.00000000      34.54758671       1.16281424
      20.70000000      90.00000000     360.00000000      34.54787672       1.16282400
      20.80000000      90.00000000     360.00000000      34.54816670       1.16283376
      20.90000000      90.00000000     360.00000000      34.54845665       1.16284352
      21.00000000      90.00000000     360.00000000      34.54874658       1.16285328
      21.10000000      90.00000000     360.00000000      34.54903649       1.16286303
      21.20000000      90.00000000     360.00000000      34.54932637       1.16287279
      21.30000000      90.00000000     360.00000000      34.54961622       1.16288255
      21.40000000      90.00000000     360.00000000      34.54990605       1.16289230
      21.50000000      90.00000000     360.00000000      34.55019585       1.16290206
      21.60000000      90.00000000     360.00000000      34.55048563       1.16291181
      21.70000000      90.00000000     360.00000000      34.55077537       1.16292156
      21.80000000      90.00000000     360.00000000      34.55106509       1.16293131
      21.90000000      90.00000000     360.00000000      34.55135478       1.16294106
      22.00000000      90.00000000     360.00000000      34.55164445       1.16295081
      22.10000000      90.00000000     360.00000000      34.55193409       1.16296056
      22.20000000      90.00000000     360.00000000      34.55222369       1.16297031
      22.30000000      90.00000000     360.00000000      34.55251328       1.16298006
      22.40000000      90.00000000     360.00000000      34.55280283       1.16298980
      22.50000000      90.00000000     360.00000000      34.55309235       1.16299955
      22.60000000      90.00000000     360.00000000      34.55338185       1.16300929
      22.70000000      90.00000000     360.00000000      34.55367132       1.16301903
      22.80000000      90.00000000     360.00000000      34.55396077       1.16302878
      22.90000000      90.00000000     360.00000000      34.55425018       1.16303852
      23.00000000      90.00000000     360.00000000      34.55453957       1.16304826
      23.10000000      90.00000000     360.00000000      34.55482893       1.16305800
      23.20000000      90.00000000     360.00000000      34.55511827       1.16306774
      23.30000000      90.00000000     360.00000000      34.55540758       1.16307747
      23.40000000      90.00000000     360.00000000      34.55569686       1.16308721
      23.50000000      90.00000000     360.00000000      34.55598612       1.16309695
      23.60000000      90.00000000     360.00000000      34.55627535       1.16310668
      23.70000000      90.00000000     360.00000000      34.55656456       1.16311642
      23.80000000      90.00000000     360.00000000      34.55685374       1.16312615
      23.90000000      90.00000000     360.00000000      34.55714289       1.16313588
      24.00000000      90.00000000     360.00000000      34.55743202       1.16314561
      24.10000000      90.00000000     360.00000000      34.55772113       1.16315534
      24.20000000      90.00000000     360.00000000      34.55801021       1.16316507
      24.30000000      90.00000000     360.00000000      34.55829926       1.16317480
      24.40000000      90.00000000     360.00000000      34.55858829       1.16318453
      24.50000000      90.00000000     360.00000000      34.55887730       1.16319426
      24.60000000      90.00000000     360.00000000      34.55916628       1.16320399
      24.70000000      90.00000000     360.00000000      34.55945524       1.16321371
      24.80000000      90.00000000     360.00000000      34.55974417       1.16322344
      24.90000000      90.00000000     360.00000000      34.56003309       1.16323316
      25.00000000      90.00000000     360.00000000      34.56032198       1.16324288
      25.10000000      90.00000000     360.00000000      34.56061086       1.16325261
      25.20000000      90.00000000     360.00000000      34.56089972       1.16326233
      25.30000000      90.00000000     360.00000000      34.56118858       1.16327205
      25.40000000      90.00000000     360.00000000      34.56147746       1.16328178
      25.50000000      90.00000000     360.00000000      34.56176640       1.16329150
      25.60000000      90.00000000     360.00000000      34.56205546       1.16330123
      25.70000000      90.00000000     360.00000000      34.56234460       1.16331096
      25.80000000      90.00000000     360.00000000      34.56263361       1.16332069
      25.90000000      90.00000000     360.00000000      34.56292242       1.16333041
      26.00000000      90.00000000     360.00000000      34.56321108       1.16334013
      26.10000000      90.00000000     360.00000000      34.56349966       1.16334984
      26.20000000      90.00000000     360.00000000      34.56378818       1.16335955
      26.30000000      90.00000000     360.00000000      34.56407667       1.16336926
      26.40000000      90.00000000     360.00000000      34.56436512       1.16337897
      26.50000000      90.00000000     360.00000000      34.56465355       1.16338868
      26.60000000      90.00000000     360.00000000      34.56494195       1.16339838
      26.70000000      90.00000000     360.00000000      34.56523032       1.16340809
      26.80000000      90.00000000     360.00000000      34.56551867       1.16341780
      26.90000000      90.00000000     360.00000000      34.56580699       1.16342750
      27.00000000      90.00000000     360.00000000      34.56609529       1.16343720
      27.10000000      90.00000000     360.00000000      34.56638357       1.16344691
      27.20000000      90.00000000     360.00000000      34.56667182       1.16345661
      27.30000000      90.00000000     360.00000000      34.56696004       1.16346631
      27.40000000      90.00000000     360.00000000      34.56724825       1.16347601
      27.50000000      90.00000000     360.00000000      34.56753642       1.16348571
      27.60000000      90.00000000     360.00000000      34.56782458       1.16349541
      27.70000000      90.00000000     360.00000000      34.56811271       1.16350511
      27.80000000      90.00000000     360.00000000      34.56840083       1.16351480
      27.90000000      90.00000000     360.00000000      34.56868893       1.16352450
      28.00000000      90.00000000     360.00000000      34.56897702       1.16353420
      28.10000000      90.00000000     360.00000000      34.56926511       1.16354389
      28.20000000      90.00000000     360.00000000      34.56955320       1.16355359
      28.30000000      90.00000000     360.00000000      34.56984126       1.16356329
      28.40000000      90.00000000     360.00000000      34.57012931       1.16357298
      28.50000000      90.00000000     360.00000000      34.57041733       1.16358268
      28.60000000      90.00000000     360.00000000      34.57070533       1.16359237
      28.70000000      90.00000000     360.00000000      34.57099331       1.16360206
      28.80000000      90.00000000     360.00000000      34.57128126       1.16361176
      28.90000000      90.00000000     360.00000000      34.57156919       1.16362145
      29.00000000      90.00000000     360.00000000      34.57185709       1.16363114
      29.10000000      90.00000000     360.00000000      34.57214497       1.16364083
      29.20000000      90.00000000     360.00000000      34.57243283       1.16365051
      29.30000000      90.00000000     360.00000000      34.57272066       1.16366020
      29.40000000      90.00000000     360.00000000      34.57300846       1.16366989
      29.50000000      90.00000000     360.00000000      34.57329624       1.16367958
      29.60000000      90.00000000     360.00000000      34.57358399       1.16368926
      29.70000000      90.00000000     360.00000000      34.57387172       1.16369895
      29.80000000      90.00000000     360.00000000      34.57415943       1.16370863
      29.90000000      90.00000000     360.00000000      34.57444710       1.16371831
      30.00000000      90.00000000     360.00000000      34.57473476       1.16372799
      30.10000000      90.00000000     360.00000000      34.57502238       1.16373768
      30.20000000      90.00000000     360.00000000      34.57530999       1.16374736
      30.30000000      90.00000000     360.00000000      34.57559756       1.16375703
      30.40000000      90.00000000     360.00000000      34.57588511       1.16376671
      30.50000000      90.00000000     360.00000000      34.57617264       1.16377639
      30.60000000      90.00000000     360.00000000      34.57646013       1.16378607
      30.70000000      90.00000000     360.00000000      34.57674761       1.16379574
      30.80000000      90.00000000     360.00000000      34.57703505       1.16380542
      30.90000000      90.00000000     360.00000000      34.57732247       1.16381509
      31.00000000      90.00000000     360.00000000      34.57760987       1.16382477
      31.10000000      90.00000000     360.00000000      34.57789723       1.16383444
      31.20000000      90.00000000     360.00000000      34.57818457       1.16384411
      31.30000000      90.00000000     360.00000000      34.57847189       1.16385378
      31.40000000      90.00000000     360.00000000      34.57875917       1.16386345
      31.50000000      90.00000000     360.00000000      34.57904643       1.16387312
      31.60000000      90.00000000     360.00000000      34.57933367       1.16388279
      31.70000000      90.00000000     360.00000000      34.57962087       1.16389245
      31.80000000      90.00000000     360.00000000      34.57990805       1.16390212
      31.90000000      90.00000000     360.00000000      34.58019520       1.16391178
      32.00000000      90.00000000     360.00000000      34.58048233       1.16392145
      32.10000000      90.00000000     360.00000000      34.58076942       1.16393111
      32.20000000      90.00000000     360.00000000      34.58105649       1.16394077
      32.30000000      90.00000000     360.00000000      34.58134353       1.16395043
      32.40000000      90.00000000     360.00000000      34.58163054       1.16396009
      32.50000000      90.00000000     360.00000000      34.58191746       1.16396975
      32.60000000      90.00000000     360.00000000      34.58220434       1.16397941
      32.70000000      90.00000000     360.00000000      34.58249118       1.16398906
      32.80000000      90.00000000     360.00000000      34.58277800       1.16399872
      32.90000000      90.00000000     360.00000000      34.58306479       1.16400837
      33.00000000      90.00000000     360.00000000      34.58335155       1.16401802
      33.10000000      90.00000000     360.00000000      34.58363828       1.16402767
      33.20000000      90.00000000     360.00000000      34.58392499       1.16403732
      33.30000000      90.00000000     360.00000000      34.58421166       1.16404697
      33.40000000      90.00000000     360.00000000      34.58449831       1.16405662
      33.50000000      90.00000000     360.00000000      34.58478492       1.16406627
      33.60000000      90.00000000     360.00000000      34.58507151       1.16407591
      33.70000000      90.00000000     360.00000000      34.58535806       1.16408556
      33.80000000      90.00000000     360.00000000      34.58564459       1.16409520
      33.90000000      90.00000000     360.00000000      34.58593109       1.16410484
      34.00000000      90.00000000     360.00000000      34.58621756       1.16411449
      34.10000000      90.00000000     360.00000000      34.58650399       1.16412413
      34.20000000      90.00000000     360.00000000      34.58679040       1.16413377
      34.30000000      90.00000000     360.00000000      34.58707682       1.16414341
      34.40000000      90.00000000     360.00000000      34.58736317       1.16415305
      34.50000000      90.00000000     360.00000000      34.58764948       1.16416268
      34.60000000      90.00000000     360.00000000      34.58793577       1.16417232
      34.70000000      90.00000000     360.00000000      34.58822203       1.16418195
      34.80000000      90.00000000     360.00000000      34.58850825       1.16419159
      34.90000000      90.00000000     360.00000000      34.58879444       1.16420122
      35.00000000      90.00000000     360.00000000      34.58908061       1.16421085
      35.10000000      90.00000000     360.00000000      34.58936674       1.16422048
      35.20000000      90.00000000     360.00000000      34.58965284       1.16423011
      35.30000000      90.00000000     360.00000000      34.58993891       1.16423974
      35.40000000      90.00000000     360.00000000      34.59022495       1.16424937
      35.50000000      90.00000000     360.00000000      34.59051096       1.16425899
      35.60000000      90.00000000     360.00000000      34.59079694       1.16426862
      35.70000000      90.00000000     360.00000000      34.59108288       1.16427824
      35.80000000      90.00000000     360.00000000      34.59136879       1.16428787
      35.90000000      90.00000000     360.00000000      34.59165467       1.16429749
      36.00000000      90.00000000     360.00000000      34.59194052       1.16430711
      36.10000000      90.00000000     360.00000000      34.59222634       1.16431673
      36.20000000      90.00000000     360.00000000      34.59251213       1.16432635
      36.30000000      90.00000000     360.00000000      34.59279788       1.16433597
      36.40000000      90.00000000     360.00000000      34.59308360       1.16434559
      36.50000000      90.00000000     360.00000000      34.59336929       1.16435520
      36.60000000      90.00000000     360.00000000      34.59365495       1.16436482
      36.70000000      90.00000000     360.00000000      34.59394058       1.16437443
      36.80000000      90.00000000     360.00000000      34.59422617       1.16438404
      36.90000000      90.00000000     360.00000000      34.59451173       1.16439365
      37.00000000      90.00000000     360.00000000      34.59479726       1.16440326
      37.10000000      90.00000000     360.00000000      34.59508276       1.16441287
      37.20000000      90.00000000     360.00000000      34.59536822       1.16442248
      37.30000000      90.00000000     360.00000000      34.59565365       1.16443209
      37.40000000      90.00000000     360.00000000      34.59593905       1.16444170
      37.50000000      90.00000000     360.00000000      34.59622442       1.16445130
      37.60000000      90.00000000     360.00000000      34.59650975       1.16446090
      37.70000000      90.00000000     360.00000000      34.59679505       1.16447051
      37.80000000      90.00000000     360.00000000      34.59708032       1.16448011
      37.90000000      90.00000000     360.00000000      34.59736556       1.16448971
      38.00000000      90.00000000     360.00000000      34.59765121       1.16449932
      38.10000000      90.00000000     360.00000000      34.59793639       1.16450892
      38.20000000      90.00000000     360.00000000      34.59822153       1.16451852
      38.30000000      90.00000000     360.00000000      34.59850664       1.16452812
      38.40000000      90.00000000     360.00000000      34.59879172       1.16453771
      38.50000000      90.00000000     360.00000000      34.59907676       1.16454731
      38.60000000      90.00000000     360.00000000      34.59936178       1.16455690
      38.70000000      90.00000000     360.00000000      34.59964675       1.16456649
      38.80000000      90.00000000     360.00000000      34.59993170       1.16457608
      38.90000000      90.00000000     360.00000000      34.60021661       1.16458567
      39.00000000      90.00000000     360.00000000      34.60050149       1.16459526
      39.10000000      90.00000000     360.00000000      34.60078633       1.16460485
      39.20000000      90.00000000     360.00000000      34.60107114       1.16461443
      39.30000000      90.00000000     360.00000000      34.60135591       1.16462402
      39.40000000      90.00000000     360.00000000      34.60164065       1.16463360
      39.50000000      90.00000000     360.00000000      34.60192536       1.16464318
      39.60000000      90.00000000     360.00000000      34.60221003       1.16465277
      39.70000000      90.00000000     360.00000000      34.60249467       1.16466235
      39.80000000      90.00000000     360.00000000      34.60277928       1.16467193
      39.90000000      90.00000000     360.00000000      34.60306385       1.16468150
      40.00000000      90.00000000     360.00000000      34.60334838       1.16469108
