 # applied field (T), theta (degree), phi (degree), abs for RE 3-4
     0.00000   180.00000   360.00000     3.88919   180.00000   360.00000     3.88919
     0.10000   179.78163   180.00000     3.88917   179.76015   180.00000     3.88919
     0.20000   179.51936   180.00000     3.88910   179.47217   180.00000     3.88917
     0.30000   179.30098   180.00000     3.88899   179.23231   180.00000     3.88914
     0.40000   179.08259   180.00000     3.88884   178.99244   180.00000     3.88910
     0.50000   178.82029   180.00000     3.88860   178.70443   180.00000     3.88904
     0.60000   178.60186   180.00000     3.88836   178.46453   180.00000     3.88897
     0.70000   178.38342   180.00000     3.88808   178.22462   180.00000     3.88890
     0.80000   178.12104   180.00000     3.88770   177.93655   180.00000     3.88879
     0.90000   177.90253   180.00000     3.88733   177.69659   180.00000     3.88870
     1.00000   177.68399   180.00000     3.88692   177.45661   180.00000     3.88859
     1.10000   177.42148   180.00000     3.88638   177.16845   180.00000     3.88844
     1.20000   177.20286   180.00000     3.88588   176.92840   180.00000     3.88831
     1.30000   176.94024   180.00000     3.88523   176.64016   180.00000     3.88814
     1.40000   176.72152   180.00000     3.88464   176.40003   180.00000     3.88798
     1.50000   176.50274   180.00000     3.88402   176.15987   180.00000     3.88781
     1.60000   176.23992   180.00000     3.88321   175.87148   180.00000     3.88760
     1.70000   176.02102   180.00000     3.88250   175.63123   180.00000     3.88741
     1.80000   175.80205   180.00000     3.88174   175.39093   180.00000     3.88721
     1.90000   175.53899   180.00000     3.88078   175.10236   180.00000     3.88695
     2.00000   175.31987   180.00000     3.87994   174.86194   180.00000     3.88672
     2.10000   175.10067   180.00000     3.87905   174.62148   180.00000     3.88649
     2.20000   174.83733   180.00000     3.87794   174.33269   180.00000     3.88619
     2.30000   174.61795   180.00000     3.87697   174.09210   180.00000     3.88593
     2.40000   174.39850   180.00000     3.87596   173.85144   180.00000     3.88566
     2.50000   174.13482   180.00000     3.87469   173.56241   180.00000     3.88532
     2.60000   173.91516   180.00000     3.87359   173.32160   180.00000     3.88502
     2.70000   173.65122   180.00000     3.87223   173.03239   180.00000     3.88465
     2.80000   173.43134   180.00000     3.87104   172.79142   180.00000     3.88434
     2.90000   173.21135   180.00000     3.86981   172.55037   180.00000     3.88401
     3.00000   172.94701   180.00000     3.86829   172.26087   180.00000     3.88360
     3.10000   172.72678   180.00000     3.86698   172.01964   180.00000     3.88324
     3.20000   172.50643   180.00000     3.86563   171.77832   180.00000     3.88288
     3.30000   172.24163   180.00000     3.86396   171.48848   180.00000     3.88243
     3.40000   172.02101   180.00000     3.86252   171.24697   180.00000     3.88204
     3.50000   171.80025   180.00000     3.86104   171.00536   180.00000     3.88164
     3.60000   171.53496   180.00000     3.85922   170.71516   180.00000     3.88114
     3.70000   171.31390   180.00000     3.85765   170.47333   180.00000     3.88072
     3.80000   171.04824   180.00000     3.85573   170.18286   180.00000     3.88020
     3.90000   170.82687   180.00000     3.85408   169.94081   180.00000     3.87975
     4.00000   170.60534   180.00000     3.85240   169.69864   180.00000     3.87929
     4.10000   170.33910   180.00000     3.85032   169.40775   180.00000     3.87872
     4.20000   170.11723   180.00000     3.84855   169.16533   180.00000     3.87824
     4.30000   169.85056   180.00000     3.84638   168.87413   180.00000     3.87765
     4.40000   169.62832   180.00000     3.84453   168.63145   180.00000     3.87714
     4.50000   169.40591   180.00000     3.84263   168.38864   180.00000     3.87662
     4.60000   169.13858   180.00000     3.84031   168.09697   180.00000     3.87598
     4.70000   168.91577   180.00000     3.83834   167.85387   180.00000     3.87544
     4.80000   168.69278   180.00000     3.83632   167.61065   180.00000     3.87489
     4.90000   168.42474   180.00000     3.83386   167.31846   180.00000     3.87421
     5.00000   168.20132   180.00000     3.83177   167.07493   180.00000     3.87363
     5.10000   167.93276   180.00000     3.82921   166.78237   180.00000     3.87292
     5.20000   167.70890   180.00000     3.82703   166.53852   180.00000     3.87232
     5.30000   167.48484   180.00000     3.82482   166.29453   180.00000     3.87170
     5.40000   167.21548   180.00000     3.82212   166.00139   180.00000     3.87095
     5.50000   166.99093   180.00000     3.81982   165.75706   180.00000     3.87031
     5.60000   166.72099   180.00000     3.81703   165.46351   180.00000     3.86953
     5.70000   166.49596   180.00000     3.81465   165.21882   180.00000     3.86887
     5.80000   166.22541   180.00000     3.81176   164.92484   180.00000     3.86806
     5.90000   165.99986   180.00000     3.80931   164.67978   180.00000     3.86737
     6.00000   165.77407   180.00000     3.80682   164.43456   180.00000     3.86667
     6.10000   165.50259   180.00000     3.80379   164.13992   180.00000     3.86582
     6.20000   165.27625   180.00000     3.80123   163.89430   180.00000     3.86510
     6.30000   165.00411   180.00000     3.79811   163.59919   180.00000     3.86422
     6.40000   164.77720   180.00000     3.79547   163.35317   180.00000     3.86347
     6.50000   164.50436   180.00000     3.79226   163.05756   180.00000     3.86256
     6.60000   164.27686   180.00000     3.78954   162.81113   180.00000     3.86178
     6.70000   164.04908   180.00000     3.78679   162.56449   180.00000     3.86100
     6.80000   163.77517   180.00000     3.78345   162.26814   180.00000     3.86004
     6.90000   163.54676   180.00000     3.78063   162.02107   180.00000     3.85923
     7.00000   163.27210   180.00000     3.77720   161.72417   180.00000     3.85825
     7.10000   163.04304   180.00000     3.77430   161.47665   180.00000     3.85742
     7.20000   162.76757   180.00000     3.77079   161.17920   180.00000     3.85640
     7.30000   162.53784   180.00000     3.76782   160.93120   180.00000     3.85554
     7.40000   162.26155   180.00000     3.76422   160.63318   180.00000     3.85450
     7.50000   162.03111   180.00000     3.76118   160.38469   180.00000     3.85361
     7.60000   161.75397   180.00000     3.75750   160.08608   180.00000     3.85254
     7.70000   161.52281   180.00000     3.75439   159.83709   180.00000     3.85163
     7.80000   161.24478   180.00000     3.75063   159.53786   180.00000     3.85053
     7.90000   161.01286   180.00000     3.74746   159.28836   180.00000     3.84959
     8.00000   160.73392   180.00000     3.74361   158.98850   180.00000     3.84846
     8.10000   160.50122   180.00000     3.74037   158.73846   180.00000     3.84750
     8.20000   160.22133   180.00000     3.73645   158.43795   180.00000     3.84634
     8.30000   159.98783   180.00000     3.73315   158.18736   180.00000     3.84536
     8.40000   159.70695   180.00000     3.72915   157.88618   180.00000     3.84416
     8.50000   159.47262   180.00000     3.72578   157.63502   180.00000     3.84315
     8.60000   159.19073   180.00000     3.72171   157.33315   180.00000     3.84193
     8.70000   158.95553   180.00000     3.71828   157.08140   180.00000     3.84090
     8.80000   158.67259   180.00000     3.71414   156.77882   180.00000     3.83964
     8.90000   158.43651   180.00000     3.71065   156.52648   180.00000     3.83859
     9.00000   158.15249   180.00000     3.70643   156.22317   180.00000     3.83730
     9.10000   157.86787   180.00000     3.70218   155.91945   180.00000     3.83600
     9.20000   157.63036   180.00000     3.69860   155.66614   180.00000     3.83491
     9.30000   157.34460   180.00000     3.69429   155.36166   180.00000     3.83358
     9.40000   157.10612   180.00000     3.69065   155.10771   180.00000     3.83246
     9.50000   156.81919   180.00000     3.68627   154.80245   180.00000     3.83110
     9.60000   156.57973   180.00000     3.68259   154.54783   180.00000     3.82995
     9.70000   156.29159   180.00000     3.67814   154.24177   180.00000     3.82857
     9.80000   156.00278   180.00000     3.67366   153.93525   180.00000     3.82716
     9.90000   155.76172   180.00000     3.66990   153.67958   180.00000     3.82598
    10.00000   155.47164   180.00000     3.66537   153.37223   180.00000     3.82454
    10.10000   155.18086   180.00000     3.66080   153.06441   180.00000     3.82309
    10.20000   154.93813   180.00000     3.65696   152.80764   180.00000     3.82187
    10.30000   154.64602   180.00000     3.65234   152.49896   180.00000     3.82039
    10.40000   154.35318   180.00000     3.64770   152.18979   180.00000     3.81890
    10.50000   154.10871   180.00000     3.64379   151.93187   180.00000     3.81764
    10.60000   153.81448   180.00000     3.63910   151.62180   180.00000     3.81611
    10.70000   153.51948   180.00000     3.63437   151.31122   180.00000     3.81457
    10.80000   153.27319   180.00000     3.63041   151.05212   180.00000     3.81328
    10.90000   152.97675   180.00000     3.62564   150.74061   180.00000     3.81171
    11.00000   152.67950   180.00000     3.62085   150.42857   180.00000     3.81012
    11.10000   152.43130   180.00000     3.61683   150.16824   180.00000     3.80879
    11.20000   152.13255   180.00000     3.61200   149.85524   180.00000     3.80718
    11.30000   151.83296   180.00000     3.60715   149.54169   180.00000     3.80555
    11.40000   151.53252   180.00000     3.60228   149.22760   180.00000     3.80391
    11.50000   151.28162   180.00000     3.59819   148.96553   180.00000     3.80252
    11.60000   150.97959   180.00000     3.59329   148.65042   180.00000     3.80085
    11.70000   150.67667   180.00000     3.58837   148.33474   180.00000     3.79916
    11.80000   150.37285   180.00000     3.58343   148.01850   180.00000     3.79746
    11.90000   150.06812   180.00000     3.57848   147.70167   180.00000     3.79574
    12.00000   149.76247   180.00000     3.57351   147.38426   180.00000     3.79401
    12.10000   149.50716   180.00000     3.56936   147.11939   180.00000     3.79256
    12.20000   149.19979   180.00000     3.56437   146.80089   180.00000     3.79080
    12.30000   148.89145   180.00000     3.55938   146.48178   180.00000     3.78902
    12.40000   148.58214   180.00000     3.55437   146.16206   180.00000     3.78723
    12.50000   148.27185   180.00000     3.54936   145.84173   180.00000     3.78543
    12.60000   147.96056   180.00000     3.54434   145.52077   180.00000     3.78361
    12.70000   147.64826   180.00000     3.53931   145.19917   180.00000     3.78178
    12.80000   147.33494   180.00000     3.53428   144.87694   180.00000     3.77993
    12.90000   147.02058   180.00000     3.52925   144.55406   180.00000     3.77807
    13.00000   146.70517   180.00000     3.52422   144.23053   180.00000     3.77620
    13.10000   146.38870   180.00000     3.51918   143.90634   180.00000     3.77431
    13.20000   146.07116   180.00000     3.51415   143.58149   180.00000     3.77241
    13.30000   145.75253   180.00000     3.50912   143.25596   180.00000     3.77050
    13.40000   145.43280   180.00000     3.50409   142.92975   180.00000     3.76857
    13.50000   145.11196   180.00000     3.49907   142.60286   180.00000     3.76663
    13.60000   144.78999   180.00000     3.49406   142.27527   180.00000     3.76467
    13.70000   144.46689   180.00000     3.48905   141.94698   180.00000     3.76271
    13.80000   144.14264   180.00000     3.48405   141.61799   180.00000     3.76073
    13.90000   143.81722   180.00000     3.47907   141.28828   180.00000     3.75874
    14.00000   143.49064   180.00000     3.47409   140.95785   180.00000     3.75673
    14.10000   143.10803   180.00000     3.46831   140.57135   180.00000     3.75438
    14.20000   142.77886   180.00000     3.46337   140.23934   180.00000     3.75235
    14.30000   142.44848   180.00000     3.45844   139.90659   180.00000     3.75031
    14.40000   142.11688   180.00000     3.45353   139.57309   180.00000     3.74826
    14.50000   141.72837   180.00000     3.44783   139.18298   180.00000     3.74585
    14.60000   141.39408   180.00000     3.44297   138.84784   180.00000     3.74377
    14.70000   141.05853   180.00000     3.43813   138.51194   180.00000     3.74168
    14.80000   140.66538   180.00000     3.43252   138.11899   180.00000     3.73924
    14.90000   140.32707   180.00000     3.42774   137.78140   180.00000     3.73713
    15.00000   139.98746   180.00000     3.42298   137.44302   180.00000     3.73501
    15.10000   139.58955   180.00000     3.41747   137.04716   180.00000     3.73252
    15.20000   139.24712   180.00000     3.41278   136.70705   180.00000     3.73038
    15.30000   138.84588   180.00000     3.40736   136.30917   180.00000     3.72787
    15.40000   138.50057   180.00000     3.40275   135.96731   180.00000     3.72571
    15.50000   138.09596   180.00000     3.39741   135.56736   180.00000     3.72318
    15.60000   137.68952   180.00000     3.39213   135.16628   180.00000     3.72064
    15.70000   137.33972   180.00000     3.38765   134.82167   180.00000     3.71845
    15.80000   136.92984   180.00000     3.38247   134.41848   180.00000     3.71589
    15.90000   136.51809   180.00000     3.37736   134.01415   180.00000     3.71332
    16.00000   136.16372   180.00000     3.37302   133.66671   180.00000     3.71111
    16.10000   135.74848   180.00000     3.36802   133.26022   180.00000     3.70852
    16.20000   135.33136   180.00000     3.36309   132.85256   180.00000     3.70593
    16.30000   134.91234   180.00000     3.35824   132.44371   180.00000     3.70333
    16.40000   134.49141   180.00000     3.35345   132.03368   180.00000     3.70072
    16.50000   134.06858   180.00000     3.34874   131.62245   180.00000     3.69810
    16.60000   133.64384   180.00000     3.34411   131.21002   180.00000     3.69548
    16.70000   133.21718   180.00000     3.33957   130.79637   180.00000     3.69285
    16.80000   132.78861   180.00000     3.33510   130.38151   180.00000     3.69022
    16.90000   132.35812   180.00000     3.33072   129.96542   180.00000     3.68758
    17.00000   131.92573   180.00000     3.32643   129.54811   180.00000     3.68494
    17.10000   131.42920   180.00000     3.32164   129.06961   180.00000     3.68192
    17.20000   130.99271   180.00000     3.31755   128.64964   180.00000     3.67927
    17.30000   130.55433   180.00000     3.31356   128.22842   180.00000     3.67663
    17.40000   130.05098   180.00000     3.30911   127.74544   180.00000     3.67360
    17.50000   129.60855   180.00000     3.30533   127.32153   180.00000     3.67095
    17.60000   129.10061   180.00000     3.30114   126.83546   180.00000     3.66793
    17.70000   128.59025   180.00000     3.29708   126.34775   180.00000     3.66491
    17.80000   128.14171   180.00000     3.29365   125.91968   180.00000     3.66227
    17.90000   127.62685   180.00000     3.28987   125.42884   180.00000     3.65925
    18.00000   127.10962   180.00000     3.28623   124.93634   180.00000     3.65624
    18.10000   126.59005   180.00000     3.28274   124.44217   180.00000     3.65324
    18.20000   126.06817   180.00000     3.27940   123.94633   180.00000     3.65024
    18.30000   125.54401   180.00000     3.27622   123.44881   180.00000     3.64726
    18.40000   124.95164   180.00000     3.27283   122.88706   180.00000     3.64391
    18.50000   124.42275   180.00000     3.26998   122.38598   180.00000     3.64095
    18.60000   123.82515   180.00000     3.26697   121.82022   180.00000     3.63763
    18.70000   123.29168   180.00000     3.26447   121.31558   180.00000     3.63470
    18.80000   122.68903   180.00000     3.26185   120.74583   180.00000     3.63142
    18.90000   122.08380   180.00000     3.25944   120.17396   180.00000     3.62816
    19.00000   121.47603   180.00000     3.25724   119.59999   180.00000     3.62492
    19.10000   120.86580   180.00000     3.25526   119.02392   180.00000     3.62171
    19.20000   120.25316   180.00000     3.25348   118.44576   180.00000     3.61852
    19.30000   119.56969   180.00000     3.25175   117.80089   180.00000     3.61502
    19.40000   118.88341   180.00000     3.25028   117.15347   180.00000     3.61156
    19.50000   118.26341   180.00000     3.24918   116.56865   180.00000     3.60847
    19.60000   117.57200   180.00000     3.24819   115.91643   180.00000     3.60509
    19.70000   116.80845   180.00000     3.24740   115.19610   180.00000     3.60142
    19.80000   116.11168   180.00000     3.24694   114.53868   180.00000     3.59814
    19.90000   115.34241   180.00000     3.24671   113.81269   180.00000     3.59459
    20.00000   114.57027   180.00000     3.24676   113.08379   180.00000     3.59111
    20.10000   113.72473   180.00000     3.24713   112.28535   180.00000     3.58739
    20.20000   112.87593   180.00000     3.24782   111.48356   180.00000     3.58376
    20.30000   112.02394   180.00000     3.24880   110.67851   180.00000     3.58022
    20.40000   111.09740   180.00000     3.25017   109.80274   180.00000     3.57650
    20.50000   110.16722   180.00000     3.25185   108.92331   180.00000     3.57290
    20.60000   109.16144   180.00000     3.25396   107.97226   180.00000     3.56916
    20.70000   108.07917   180.00000     3.25653   106.94886   180.00000     3.56533
    20.80000   106.99209   180.00000     3.25938   105.92110   180.00000     3.56168
    20.90000   105.75421   180.00000     3.26287   104.75125   180.00000     3.55778
    21.00000   104.43669   180.00000     3.26679   103.50709   180.00000     3.55392
    21.10000   102.96450   180.00000     3.27128   102.11854   180.00000     3.55000
    21.20000   101.33507   180.00000     3.27623   100.58430   180.00000     3.54613
    21.30000    99.39615   180.00000     3.28182    98.76296   180.00000     3.54218
    21.40000    96.91602   180.00000     3.28805    96.44069   180.00000     3.53821
    21.50000    92.59238   180.00000     3.29504    92.41013   180.00000     3.53416
    21.60000    90.00000   180.00000     3.29626    90.00000   180.00000     3.53349
    21.70000    90.00000   180.00000     3.29628    90.00000   180.00000     3.53347
    21.80000    90.00000   180.00000     3.29629    90.00000   180.00000     3.53346
    21.90000    90.00000   180.00000     3.29630    90.00000   180.00000     3.53345
    22.00000    90.00000   180.00000     3.29631    90.00000   180.00000     3.53343
    22.10000    90.00000   180.00000     3.29633    90.00000   180.00000     3.53342
    22.20000    90.00000   180.00000     3.29634    90.00000   180.00000     3.53341
    22.30000    90.00000   180.00000     3.29635    90.00000   180.00000     3.53339
    22.40000    90.00000   180.00000     3.29636    90.00000   180.00000     3.53338
    22.50000    90.00000   180.00000     3.29638    90.00000   180.00000     3.53337
    22.60000    90.00000   180.00000     3.29639    90.00000   180.00000     3.53335
    22.70000    90.00000   180.00000     3.29640    90.00000   180.00000     3.53334
    22.80000    90.00000   180.00000     3.29641    90.00000   180.00000     3.53333
    22.90000    90.00000   180.00000     3.29643    90.00000   180.00000     3.53331
    23.00000    90.00000   180.00000     3.29644    90.00000   180.00000     3.53330
    23.10000    90.00000   180.00000     3.29645    90.00000   180.00000     3.53328
    23.20000    90.00000   180.00000     3.29646    90.00000   180.00000     3.53327
    23.30000    90.00000   180.00000     3.29647    90.00000   180.00000     3.53326
    23.40000    90.00000   180.00000     3.29649    90.00000   180.00000     3.53324
    23.50000    90.00000   180.00000     3.29650    90.00000   180.00000     3.53323
    23.60000    90.00000   180.00000     3.29651    90.00000   180.00000     3.53322
    23.70000    90.00000   180.00000     3.29652    90.00000   180.00000     3.53320
    23.80000    90.00000   180.00000     3.29653    90.00000   180.00000     3.53319
    23.90000    90.00000   180.00000     3.29655    90.00000   180.00000     3.53317
    24.00000    90.00000   180.00000     3.29656    90.00000   180.00000     3.53316
    24.10000    90.00000   180.00000     3.29657    90.00000   180.00000     3.53315
    24.20000    90.00000   180.00000     3.29658    90.00000   180.00000     3.53313
    24.30000    90.00000   180.00000     3.29659    90.00000   180.00000     3.53312
    24.40000    90.00000   180.00000     3.29661    90.00000   180.00000     3.53311
    24.50000    90.00000   180.00000     3.29662    90.00000   180.00000     3.53309
    24.60000    90.00000   180.00000     3.29663    90.00000   180.00000     3.53308
    24.70000    90.00000   180.00000     3.29664    90.00000   180.00000     3.53306
    24.80000    90.00000   180.00000     3.29665    90.00000   180.00000     3.53305
    24.90000    90.00000   180.00000     3.29667    90.00000   180.00000     3.53304
    25.00000    90.00000   180.00000     3.29668    90.00000   180.00000     3.53302
    25.10000    90.00000   180.00000     3.29669    90.00000   180.00000     3.53301
    25.20000    90.00000   180.00000     3.29670    90.00000   180.00000     3.53299
    25.30000    90.00000   180.00000     3.29671    90.00000   180.00000     3.53298
    25.40000    90.00000   180.00000     3.29672    90.00000   180.00000     3.53296
    25.50000    90.00000   180.00000     3.29674    90.00000   180.00000     3.53295
    25.60000    90.00000   180.00000     3.29675    90.00000   180.00000     3.53294
    25.70000    90.00000   180.00000     3.29676    90.00000   180.00000     3.53292
    25.80000    90.00000   180.00000     3.29677    90.00000   180.00000     3.53291
    25.90000    90.00000   180.00000     3.29678    90.00000   180.00000     3.53289
    26.00000    90.00000   180.00000     3.29679    90.00000   180.00000     3.53288
    26.10000    90.00000   180.00000     3.29681    90.00000   180.00000     3.53287
    26.20000    90.00000   180.00000     3.29682    90.00000   180.00000     3.53285
    26.30000    90.00000   180.00000     3.29683    90.00000   180.00000     3.53284
    26.40000    90.00000   180.00000     3.29684    90.00000   180.00000     3.53282
    26.50000    90.00000   180.00000     3.29685    90.00000   180.00000     3.53281
    26.60000    90.00000   180.00000     3.29686    90.00000   180.00000     3.53279
    26.70000    90.00000   180.00000     3.29687    90.00000   180.00000     3.53278
    26.80000    90.00000   180.00000     3.29688    90.00000   180.00000     3.53277
    26.90000    90.00000   180.00000     3.29690    90.00000   180.00000     3.53275
    27.00000    90.00000   180.00000     3.29691    90.00000   180.00000     3.53274
    27.10000    90.00000   180.00000     3.29692    90.00000   180.00000     3.53272
    27.20000    90.00000   180.00000     3.29693    90.00000   180.00000     3.53271
    27.30000    90.00000   180.00000     3.29694    90.00000   180.00000     3.53269
    27.40000    90.00000   180.00000     3.29695    90.00000   180.00000     3.53268
    27.50000    90.00000   180.00000     3.29696    90.00000   180.00000     3.53266
    27.60000    90.00000   180.00000     3.29697    90.00000   180.00000     3.53265
    27.70000    90.00000   180.00000     3.29698    90.00000   180.00000     3.53263
    27.80000    90.00000   180.00000     3.29700    90.00000   180.00000     3.53262
    27.90000    90.00000   180.00000     3.29701    90.00000   180.00000     3.53261
    28.00000    90.00000   180.00000     3.29702    90.00000   180.00000     3.53259
    28.10000    90.00000   180.00000     3.29703    90.00000   180.00000     3.53258
    28.20000    90.00000   180.00000     3.29704    90.00000   180.00000     3.53256
    28.30000    90.00000   180.00000     3.29705    90.00000   180.00000     3.53255
    28.40000    90.00000   180.00000     3.29706    90.00000   180.00000     3.53253
    28.50000    90.00000   180.00000     3.29707    90.00000   180.00000     3.53252
    28.60000    90.00000   180.00000     3.29708    90.00000   180.00000     3.53250
    28.70000    90.00000   180.00000     3.29709    90.00000   180.00000     3.53249
    28.80000    90.00000   180.00000     3.29710    90.00000   180.00000     3.53247
    28.90000    90.00000   180.00000     3.29711    90.00000   180.00000     3.53246
    29.00000    90.00000   180.00000     3.29713    90.00000   180.00000     3.53244
    29.10000    90.00000   180.00000     3.29714    90.00000   180.00000     3.53243
    29.20000    90.00000   180.00000     3.29715    90.00000   180.00000     3.53241
    29.30000    90.00000   180.00000     3.29716    90.00000   180.00000     3.53240
    29.40000    90.00000   180.00000     3.29717    90.00000   180.00000     3.53238
    29.50000    90.00000   180.00000     3.29718    90.00000   180.00000     3.53237
    29.60000    90.00000   180.00000     3.29719    90.00000   180.00000     3.53235
    29.70000    90.00000   180.00000     3.29720    90.00000   180.00000     3.53234
    29.80000    90.00000   180.00000     3.29721    90.00000   180.00000     3.53232
    29.90000    90.00000   180.00000     3.29722    90.00000   180.00000     3.53231
    30.00000    90.00000   180.00000     3.29723    90.00000   180.00000     3.53229
    30.10000    90.00000   180.00000     3.29724    90.00000   180.00000     3.53228
    30.20000    90.00000   180.00000     3.29725    90.00000   180.00000     3.53226
    30.30000    90.00000   180.00000     3.29726    90.00000   180.00000     3.53225
    30.40000    90.00000   180.00000     3.29727    90.00000   180.00000     3.53223
    30.50000    90.00000   180.00000     3.29728    90.00000   180.00000     3.53222
    30.60000    90.00000   180.00000     3.29729    90.00000   180.00000     3.53220
    30.70000    90.00000   180.00000     3.29730    90.00000   180.00000     3.53219
    30.80000    90.00000   180.00000     3.29731    90.00000   180.00000     3.53217
    30.90000    90.00000   180.00000     3.29732    90.00000   180.00000     3.53216
    31.00000    90.00000   180.00000     3.29733    90.00000   180.00000     3.53214
    31.10000    90.00000   180.00000     3.29734    90.00000   180.00000     3.53213
    31.20000    90.00000   180.00000     3.29735    90.00000   180.00000     3.53211
    31.30000    90.00000   180.00000     3.29736    90.00000   180.00000     3.53210
    31.40000    90.00000   180.00000     3.29737    90.00000   180.00000     3.53208
    31.50000    90.00000   180.00000     3.29738    90.00000   180.00000     3.53207
    31.60000    90.00000   180.00000     3.29739    90.00000   180.00000     3.53205
    31.70000    90.00000   180.00000     3.29740    90.00000   180.00000     3.53204
    31.80000    90.00000   180.00000     3.29741    90.00000   180.00000     3.53202
    31.90000    90.00000   180.00000     3.29742    90.00000   180.00000     3.53201
    32.00000    90.00000   180.00000     3.29743    90.00000   180.00000     3.53199
    32.10000    90.00000   180.00000     3.29744    90.00000   180.00000     3.53198
    32.20000    90.00000   180.00000     3.29745    90.00000   180.00000     3.53196
    32.30000    90.00000   180.00000     3.29746    90.00000   180.00000     3.53195
    32.40000    90.00000   180.00000     3.29747    90.00000   180.00000     3.53193
    32.50000    90.00000   180.00000     3.29748    90.00000   180.00000     3.53191
    32.60000    90.00000   180.00000     3.29749    90.00000   180.00000     3.53190
    32.70000    90.00000   180.00000     3.29750    90.00000   180.00000     3.53188
    32.80000    90.00000   180.00000     3.29751    90.00000   180.00000     3.53187
    32.90000    90.00000   180.00000     3.29752    90.00000   180.00000     3.53185
    33.00000    90.00000   180.00000     3.29753    90.00000   180.00000     3.53184
    33.10000    90.00000   180.00000     3.29754    90.00000   180.00000     3.53182
    33.20000    90.00000   180.00000     3.29755    90.00000   180.00000     3.53181
    33.30000    90.00000   180.00000     3.29756    90.00000   180.00000     3.53179
    33.40000    90.00000   180.00000     3.29757    90.00000   180.00000     3.53177
    33.50000    90.00000   180.00000     3.29758    90.00000   180.00000     3.53176
    33.60000    90.00000   180.00000     3.29759    90.00000   180.00000     3.53174
    33.70000    90.00000   180.00000     3.29760    90.00000   180.00000     3.53173
    33.80000    90.00000   180.00000     3.29761    90.00000   180.00000     3.53171
    33.90000    90.00000   180.00000     3.29761    90.00000   180.00000     3.53170
    34.00000    90.00000   180.00000     3.29762    90.00000   180.00000     3.53168
    34.10000    90.00000   180.00000     3.29763    90.00000   180.00000     3.53166
    34.20000    90.00000   180.00000     3.29764    90.00000   180.00000     3.53165
    34.30000    90.00000   180.00000     3.29765    90.00000   180.00000     3.53163
    34.40000    90.00000   180.00000     3.29766    90.00000   180.00000     3.53162
    34.50000    90.00000   180.00000     3.29767    90.00000   180.00000     3.53160
    34.60000    90.00000   180.00000     3.29768    90.00000   180.00000     3.53159
    34.70000    90.00000   180.00000     3.29769    90.00000   180.00000     3.53157
    34.80000    90.00000   180.00000     3.29770    90.00000   180.00000     3.53155
    34.90000    90.00000   180.00000     3.29771    90.00000   180.00000     3.53154
    35.00000    90.00000   180.00000     3.29772    90.00000   180.00000     3.53152
    35.10000    90.00000   180.00000     3.29772    90.00000   180.00000     3.53151
    35.20000    90.00000   180.00000     3.29773    90.00000   180.00000     3.53149
    35.30000    90.00000   180.00000     3.29774    90.00000   180.00000     3.53147
    35.40000    90.00000   180.00000     3.29775    90.00000   180.00000     3.53146
    35.50000    90.00000   180.00000     3.29776    90.00000   180.00000     3.53144
    35.60000    90.00000   180.00000     3.29777    90.00000   180.00000     3.53143
    35.70000    90.00000   180.00000     3.29778    90.00000   180.00000     3.53141
    35.80000    90.00000   180.00000     3.29779    90.00000   180.00000     3.53139
    35.90000    90.00000   180.00000     3.29780    90.00000   180.00000     3.53138
    36.00000    90.00000   180.00000     3.29780    90.00000   180.00000     3.53136
    36.10000    90.00000   180.00000     3.29781    90.00000   180.00000     3.53135
    36.20000    90.00000   180.00000     3.29782    90.00000   180.00000     3.53133
    36.30000    90.00000   180.00000     3.29783    90.00000   180.00000     3.53131
    36.40000    90.00000   180.00000     3.29784    90.00000   180.00000     3.53130
    36.50000    90.00000   180.00000     3.29785    90.00000   180.00000     3.53128
    36.60000    90.00000   180.00000     3.29786    90.00000   180.00000     3.53126
    36.70000    90.00000   180.00000     3.29786    90.00000   180.00000     3.53125
    36.80000    90.00000   180.00000     3.29787    90.00000   180.00000     3.53123
    36.90000    90.00000   180.00000     3.29788    90.00000   180.00000     3.53122
    37.00000    90.00000   180.00000     3.29789    90.00000   180.00000     3.53120
    37.10000    90.00000   180.00000     3.29790    90.00000   180.00000     3.53118
    37.20000    90.00000   180.00000     3.29791    90.00000   180.00000     3.53117
    37.30000    90.00000   180.00000     3.29792    90.00000   180.00000     3.53115
    37.40000    90.00000   180.00000     3.29792    90.00000   180.00000     3.53113
    37.50000    90.00000   180.00000     3.29793    90.00000   180.00000     3.53112
    37.60000    90.00000   180.00000     3.29794    90.00000   180.00000     3.53110
    37.70000    90.00000   180.00000     3.29795    90.00000   180.00000     3.53108
    37.80000    90.00000   180.00000     3.29796    90.00000   180.00000     3.53107
    37.90000    90.00000   180.00000     3.29797    90.00000   180.00000     3.53105
    38.00000    90.00000   180.00000     3.29797    90.00000   180.00000     3.53104
    38.10000    90.00000   180.00000     3.29798    90.00000   180.00000     3.53102
    38.20000    90.00000   180.00000     3.29799    90.00000   180.00000     3.53100
    38.30000    90.00000   180.00000     3.29800    90.00000   180.00000     3.53099
    38.40000    90.00000   180.00000     3.29801    90.00000   180.00000     3.53097
    38.50000    90.00000   180.00000     3.29801    90.00000   180.00000     3.53095
    38.60000    90.00000   180.00000     3.29802    90.00000   180.00000     3.53094
    38.70000    90.00000   180.00000     3.29803    90.00000   180.00000     3.53092
    38.80000    90.00000   180.00000     3.29804    90.00000   180.00000     3.53090
    38.90000    90.00000   180.00000     3.29805    90.00000   180.00000     3.53089
    39.00000    90.00000   180.00000     3.29806    90.00000   180.00000     3.53087
    39.10000    90.00000   180.00000     3.29806    90.00000   180.00000     3.53085
    39.20000    90.00000   180.00000     3.29807    90.00000   180.00000     3.53084
    39.30000    90.00000   180.00000     3.29808    90.00000   180.00000     3.53082
    39.40000    90.00000   180.00000     3.29809    90.00000   180.00000     3.53080
    39.50000    90.00000   180.00000     3.29809    90.00000   180.00000     3.53079
    39.60000    90.00000   180.00000     3.29810    90.00000   180.00000     3.53077
    39.70000    90.00000   180.00000     3.29811    90.00000   180.00000     3.53075
    39.80000    90.00000   180.00000     3.29812    90.00000   180.00000     3.53073
    39.90000    90.00000   180.00000     3.29813    90.00000   180.00000     3.53072
    40.00000    90.00000   180.00000     3.29813    90.00000   180.00000     3.53070
