 # applied field (T), theta (degree), phi (degree), abs for RE 1-2
     0.00000    90.00000   225.42773     3.32172    90.00000   225.42773     3.32172
     0.10000    90.28435   225.42773     3.32170    90.28435   225.42773     3.32170
     0.20000    90.56870   225.42773     3.32163    90.56870   225.42773     3.32163
     0.30000    90.85309   225.42773     3.32151    90.85309   225.42773     3.32151
     0.40000    91.13751   224.57227     3.32135    91.13751   224.57227     3.32135
     0.50000    91.46286   225.42773     3.32111    91.46286   225.42773     3.32111
     0.60000    91.74740   225.42773     3.32086    91.74740   225.42773     3.32086
     0.70000    92.03202   225.42773     3.32055    92.03202   225.42773     3.32055
     0.80000    92.31672   225.42773     3.32020    92.31672   225.42773     3.32020
     0.90000    92.60153   225.42773     3.31981    92.60153   225.42773     3.31981
     1.00000    92.88645   224.57227     3.31936    92.88645   224.57227     3.31936
     1.10000    93.17149   224.57226     3.31888    93.17149   224.57226     3.31888
     1.20000    93.45668   225.42774     3.31834    93.45668   225.42774     3.31834
     1.30000    93.74201   225.42774     3.31776    93.74201   225.42774     3.31776
     1.40000    94.06854   224.57226     3.31705    94.06854   224.57226     3.31705
     1.50000    94.35424   225.42774     3.31637    94.35424   225.42774     3.31637
     1.60000    94.64013   224.57226     3.31565    94.64013   224.57226     3.31565
     1.70000    94.92622   225.00000     3.31488    94.92622   225.00000     3.31488
     1.80000    95.21253   225.00000     3.31406    95.21253   225.00000     3.31406
     1.90000    95.49906   225.00000     3.31320    95.49906   225.00000     3.31320
     2.00000    95.78584   225.00000     3.31230    95.78584   225.00000     3.31230
     2.10000    96.07286   225.00000     3.31134    96.07286   225.00000     3.31134
     2.20000    96.40146   225.00000     3.31020    96.40146   225.00000     3.31020
     2.30000    96.68907   225.00000     3.30915    96.68907   225.00000     3.30915
     2.40000    96.97698   225.00000     3.30805    96.97698   225.00000     3.30805
     2.50000    97.26520   225.00000     3.30691    97.26520   225.00000     3.30691
     2.60000    97.55373   225.43606     3.30572    97.55373   225.43606     3.30572
     2.70000    97.84260   225.43607     3.30449    97.84260   225.43607     3.30449
     2.80000    98.13181   224.56393     3.30321    98.13181   224.56393     3.30321
     2.90000    98.42138   224.56393     3.30189    98.42138   224.56393     3.30189
     3.00000    98.71132   224.56393     3.30052    98.71132   224.56393     3.30052
     3.10000    99.04339   224.56392     3.29889    99.04339   224.56392     3.29889
     3.20000    99.33417   224.56392     3.29742    99.33417   224.56392     3.29742
     3.30000    99.62537   225.00000     3.29591    99.62537   225.00000     3.29591
     3.40000    99.91699   225.00000     3.29435    99.91699   225.00000     3.29435
     3.50000   100.20905   225.00000     3.29274   100.20905   225.00000     3.29274
     3.60000   100.50157   225.00000     3.29109   100.50157   225.00000     3.29109
     3.70000   100.79456   225.00000     3.28939   100.79456   225.00000     3.28939
     3.80000   101.08802   225.44473     3.28765   101.08802   225.44473     3.28765
     3.90000   101.42425   224.55527     3.28560   101.42425   224.55527     3.28560
     4.00000   101.71880   224.55526     3.28376   101.71880   224.55526     3.28376
     4.10000   102.01386   225.44474     3.28187   102.01386   225.44474     3.28187
     4.20000   102.30947   224.55526     3.27994   102.30947   224.55526     3.27994
     4.30000   102.60562   225.00000     3.27796   102.60562   225.00000     3.27796
     4.40000   102.90235   225.00000     3.27594   102.90235   225.00000     3.27594
     4.50000   103.19965   225.00000     3.27387   103.19965   225.00000     3.27387
     4.60000   103.54039   225.00000     3.27145   103.54039   225.00000     3.27145
     4.70000   103.83899   224.54625     3.26928   103.83899   224.54625     3.26928
     4.80000   104.13821   225.45375     3.26707   104.13821   225.45375     3.26707
     4.90000   104.43807   224.54625     3.26481   104.43807   224.54625     3.26481
     5.00000   104.73859   224.54624     3.26251   104.73859   224.54624     3.26251
     5.10000   105.03978   225.00000     3.26016   105.03978   225.00000     3.26016
     5.20000   105.34165   225.00000     3.25777   105.34165   225.00000     3.25777
     5.30000   105.68773   225.00000     3.25498   105.68773   225.00000     3.25498
     5.40000   105.99112   225.00000     3.25249   105.99112   225.00000     3.25249
     5.50000   106.29524   224.53686     3.24996   106.29524   224.53686     3.24996
     5.60000   106.60011   224.53686     3.24738   106.60011   224.53686     3.24738
     5.70000   106.90574   224.53686     3.24475   106.90574   224.53686     3.24475
     5.80000   107.21214   225.00000     3.24208   107.21214   225.00000     3.24208
     5.90000   107.56352   225.00000     3.23898   107.56352   225.00000     3.23898
     6.00000   107.87164   225.00000     3.23621   107.87164   225.00000     3.23621
     6.10000   108.18060   224.52709     3.23340   108.18060   224.52709     3.23340
     6.20000   108.49039   225.47292     3.23055   108.49039   225.47292     3.23055
     6.30000   108.80104   224.52708     3.22765   108.80104   224.52708     3.22765
     6.40000   109.15736   225.00000     3.22428   109.15736   225.00000     3.22428
     6.50000   109.46990   225.00000     3.22129   109.46990   225.00000     3.22129
     6.60000   109.78335   225.00000     3.21825   109.78335   225.00000     3.21825
     6.70000   110.09773   224.51688     3.21517   110.09773   224.51688     3.21517
     6.80000   110.41305   224.51688     3.21204   110.41305   224.51688     3.21204
     6.90000   110.77481   225.48313     3.20842   110.77481   225.48313     3.20842
     7.00000   111.09220   225.00000     3.20520   111.09220   225.00000     3.20520
     7.10000   111.41058   225.00000     3.20194   111.41058   225.00000     3.20194
     7.20000   111.72998   225.00000     3.19864   111.72998   225.00000     3.19864
     7.30000   112.09648   224.50623     3.19481   112.09648   224.50623     3.19481
     7.40000   112.41810   225.49378     3.19141   112.41810   225.49378     3.19141
     7.50000   112.74078   224.50622     3.18797   112.74078   224.50622     3.18797
     7.60000   113.06454   225.00000     3.18449   113.06454   225.00000     3.18449
     7.70000   113.43611   225.00000     3.18047   113.43611   225.00000     3.18047
     7.80000   113.76226   225.50490     3.17689   113.76226   225.50490     3.17689
     7.90000   114.08953   225.50490     3.17328   114.08953   225.50490     3.17328
     8.00000   114.46519   225.00000     3.16910   114.46519   225.00000     3.16910
     8.10000   114.79496   225.00000     3.16540   114.79496   225.00000     3.16540
     8.20000   115.12592   225.00000     3.16166   115.12592   225.00000     3.16166
     8.30000   115.50586   225.51654     3.15734   115.50586   225.51654     3.15734
     8.40000   115.83944   224.48346     3.15351   115.83944   224.48346     3.15351
     8.50000   116.17427   225.00000     3.14964   116.17427   225.00000     3.14964
     8.60000   116.55869   225.00000     3.14517   116.55869   225.00000     3.14517
     8.70000   116.89627   224.47128     3.14122   116.89627   224.47128     3.14122
     8.80000   117.28387   224.47127     3.13665   117.28387   224.47127     3.13665
     8.90000   117.62426   224.47127     3.13262   117.62426   224.47127     3.13262
     9.00000   117.96600   225.00000     3.12854   117.96600   225.00000     3.12854
     9.10000   118.35844   225.00000     3.12384   118.35844   225.00000     3.12384
     9.20000   118.70314   224.45850     3.11968   118.70314   224.45850     3.11968
     9.30000   119.09900   225.54151     3.11489   119.09900   225.54151     3.11489
     9.40000   119.44672   225.00000     3.11066   119.44672   225.00000     3.11066
     9.50000   119.84611   225.00000     3.10577   119.84611   225.00000     3.10577
     9.60000   120.19697   225.55490     3.10146   120.19697   225.55490     3.10146
     9.70000   120.59997   224.44509     3.09649   120.59997   224.44509     3.09649
     9.80000   120.95404   225.00000     3.09211   120.95404   225.00000     3.09211
     9.90000   121.36076   225.00000     3.08705   121.36076   225.00000     3.08705
    10.00000   121.76952   225.56898     3.08196   121.76952   225.56898     3.08196
    10.10000   122.12869   224.43101     3.07746   122.12869   224.43101     3.07746
    10.20000   122.54132   225.00000     3.07228   122.54132   225.00000     3.07228
    10.30000   122.90393   225.00000     3.06771   122.90393   225.00000     3.06771
    10.40000   123.32055   225.58379     3.06246   123.32055   225.58379     3.06246
    10.50000   123.73932   225.00000     3.05716   123.73932   225.00000     3.05716
    10.60000   124.16029   225.00000     3.05183   124.16029   225.00000     3.05183
    10.70000   124.58349   225.59939     3.04645   124.58349   225.59939     3.04645
    10.80000   124.95547   225.59940     3.04172   124.95547   225.59940     3.04172
    10.90000   125.38290   225.00000     3.03628   125.38290   225.00000     3.03628
    11.00000   125.81265   225.00000     3.03080   125.81265   225.00000     3.03080
    11.10000   126.24474   225.61585     3.02529   126.24474   225.61585     3.02529
    11.20000   126.67919   225.00000     3.01975   126.67919   225.00000     3.01975
    11.30000   127.11603   225.00000     3.01417   127.11603   225.00000     3.01417
    11.40000   127.55530   224.36677     3.00856   127.55530   224.36677     3.00856
    11.50000   127.99701   225.00000     3.00292   127.99701   225.00000     3.00292
    11.60000   128.44120   225.00000     2.99726   128.44120   225.00000     2.99726
    11.70000   128.88791   224.34839     2.99156   128.88791   224.34839     2.99156
    11.80000   129.33714   225.65162     2.98584   129.33714   225.65162     2.98584
    11.90000   129.78893   225.00000     2.98010   129.78893   225.00000     2.98010
    12.00000   130.30046   225.67110     2.97361   130.30046   225.67110     2.97361
    12.10000   130.75779   225.67111     2.96782   130.75779   225.67111     2.96782
    12.20000   131.21777   225.00000     2.96201   131.21777   225.00000     2.96201
    12.30000   131.73860   225.69178     2.95545   131.73860   225.69178     2.95545
    12.40000   132.20428   225.00000     2.94960   132.20428   225.00000     2.94960
    12.50000   132.73159   225.00000     2.94300   132.73159   225.00000     2.94300
    12.60000   133.20312   225.71377     2.93712   133.20312   225.71377     2.93712
    12.70000   133.73704   225.00000     2.93049   133.73704   225.00000     2.93049
    12.80000   134.27452   225.00000     2.92385   134.27452   225.00000     2.92385
    12.90000   134.75516   225.73721     2.91793   134.75516   225.73721     2.91793
    13.00000   135.29944   225.00000     2.91128   135.29944   225.00000     2.91128
    13.10000   135.84736   224.23777     2.90461   135.84736   224.23777     2.90461
    13.20000   136.39896   225.76224     2.89794   136.39896   225.76224     2.89794
    13.30000   136.95425   225.00000     2.89127   136.95425   225.00000     2.89127
    13.40000   137.51329   224.21099     2.88461   137.51329   224.21099     2.88461
    13.50000   138.07607   225.00000     2.87794   138.07607   225.00000     2.87794
    13.60000   138.70596   225.81773     2.87055   138.70596   225.81773     2.87055
    13.70000   139.27676   225.00000     2.86391   139.27676   225.00000     2.86391
    13.80000   139.91559   225.00000     2.85655   139.91559   225.00000     2.85655
    13.90000   140.49451   225.84863     2.84994   140.49451   225.84863     2.84994
    14.00000   141.14239   225.00000     2.84263   141.14239   225.00000     2.84263
    14.10000   141.79509   224.11806     2.83534   141.79509   224.11806     2.83534
    14.20000   142.45259   225.00000     2.82809   142.45259   225.00000     2.82809
    14.30000   143.11494   224.08203     2.82087   143.11494   224.08203     2.82087
    14.40000   143.78213   225.00000     2.81370   143.78213   225.00000     2.81370
    14.50000   144.52176   224.04294     2.80586   144.52176   224.04294     2.80586
    14.60000   145.26726   225.00000     2.79810   145.26726   225.00000     2.79810
    14.70000   145.95002   225.99963     2.79109   145.95002   225.99963     2.79109
    14.80000   146.77592   225.00000     2.78277   146.77592   225.00000     2.78277
    14.90000   147.53908   226.04616     2.77523   147.53908   226.04616     2.77523
    15.00000   148.30809   225.00000     2.76778   148.30809   225.00000     2.76778
    15.10000   149.15375   223.90277     2.75976   149.15375   223.90277     2.75976
    15.20000   150.00631   225.00000     2.75186   150.00631   225.00000     2.75186
    15.30000   150.93774   225.00000     2.74345   150.93774   225.00000     2.74345
    15.40000   151.80455   226.21592     2.73583   151.80455   226.21592     2.73583
    15.50000   152.75124   225.00000     2.72775   152.75124   225.00000     2.72775
    15.60000   153.77955   225.00000     2.71925   153.77955   225.00000     2.71925
    15.70000   154.81676   226.36337     2.71098   154.81676   226.36337     2.71098
    15.80000   155.93779   225.00000     2.70239   155.93779   225.00000     2.70239
    15.90000   157.06863   225.00000     2.69410   157.06863   225.00000     2.69410
    16.00000   158.28542   225.00000     2.68559   158.28542   225.00000     2.68559
    16.10000   159.58981   223.33355     2.67696   159.58981   223.33355     2.67696
    16.20000   160.98338   223.20020     2.66830   160.98338   223.20020     2.66830
    16.30000   162.46759   226.95634     2.65973   162.46759   226.95634     2.65973
    16.40000   164.12294   227.14269     2.65097   164.12294   227.14269     2.65097
    16.50000   166.03246   225.00000     2.64192   166.03246   225.00000     2.64192
    16.60000   168.20094   225.00000     2.63303   168.20094   225.00000     2.63303
    16.70000   170.87630   225.00000     2.62410   170.87630   225.00000     2.62410
    16.80000   174.96977   218.57148     2.61483   174.96977   218.57148     2.61483
    16.90000   180.00000   180.00000     2.61075   180.00000   180.00000     2.61075
    17.00000   180.00000   360.00000     2.61070   180.00000   360.00000     2.61070
    17.10000   180.00000   360.00000     2.61065   180.00000   360.00000     2.61065
    17.20000   180.00000   180.00000     2.61060   180.00000   180.00000     2.61060
    17.30000   180.00000   360.00000     2.61055   180.00000   360.00000     2.61055
    17.40000   180.00000   360.00000     2.61049   180.00000   360.00000     2.61049
    17.50000   180.00000   180.00000     2.61044   180.00000   180.00000     2.61044
    17.60000   180.00000   180.00000     2.61039   180.00000   180.00000     2.61039
    17.70000   180.00000   360.00000     2.61034   180.00000   360.00000     2.61034
    17.80000   180.00000   180.00000     2.61029   180.00000   180.00000     2.61029
    17.90000   180.00000   180.00000     2.61024   180.00000   180.00000     2.61024
    18.00000   180.00000   180.00000     2.61019   180.00000   180.00000     2.61019
    18.10000   180.00000   180.00000     2.61014   180.00000   180.00000     2.61014
    18.20000   180.00000   360.00000     2.61009   180.00000   360.00000     2.61009
    18.30000   180.00000   360.00000     2.61003   180.00000   360.00000     2.61003
    18.40000   180.00000   180.00000     2.60998   180.00000   180.00000     2.60998
    18.50000   180.00000   180.00000     2.60993   180.00000   180.00000     2.60993
    18.60000   180.00000   180.00000     2.60988   180.00000   180.00000     2.60988
    18.70000   180.00000   360.00000     2.60983   180.00000   360.00000     2.60983
    18.80000   180.00000   360.00000     2.60978   180.00000   360.00000     2.60978
    18.90000   180.00000   360.00000     2.60973   180.00000   360.00000     2.60973
    19.00000   180.00000   180.00000     2.60967   180.00000   180.00000     2.60967
    19.10000   180.00000   180.00000     2.60962   180.00000   180.00000     2.60962
    19.20000   180.00000   180.00000     2.60957   180.00000   180.00000     2.60957
    19.30000   180.00000   180.00000     2.60952   180.00000   180.00000     2.60952
    19.40000   180.00000   360.00000     2.60947   180.00000   360.00000     2.60947
    19.50000   180.00000   360.00000     2.60942   180.00000   360.00000     2.60942
    19.60000   180.00000   360.00000     2.60937   180.00000   360.00000     2.60937
    19.70000   180.00000   360.00000     2.60931   180.00000   360.00000     2.60931
    19.80000   180.00000   360.00000     2.60926   180.00000   360.00000     2.60926
    19.90000   180.00000   180.00000     2.60921   180.00000   180.00000     2.60921
    20.00000   180.00000   180.00000     2.60916   180.00000   180.00000     2.60916
    20.10000   180.00000   360.00000     2.60911   180.00000   360.00000     2.60911
    20.20000   180.00000   360.00000     2.60906   180.00000   360.00000     2.60906
    20.30000   180.00000   180.00000     2.60900   180.00000   180.00000     2.60900
    20.40000   180.00000   180.00000     2.60895   180.00000   180.00000     2.60895
    20.50000   180.00000   360.00000     2.60890   180.00000   360.00000     2.60890
    20.60000   180.00000   180.00000     2.60885   180.00000   180.00000     2.60885
    20.70000   180.00000   180.00000     2.60880   180.00000   180.00000     2.60880
    20.80000   180.00000   360.00000     2.60875   180.00000   360.00000     2.60875
    20.90000   180.00000   360.00000     2.60869   180.00000   360.00000     2.60869
    21.00000   180.00000   360.00000     2.60864   180.00000   360.00000     2.60864
    21.10000   180.00000   360.00000     2.60859   180.00000   360.00000     2.60859
    21.20000   180.00000   180.00000     2.60854   180.00000   180.00000     2.60854
    21.30000   180.00000   360.00000     2.60849   180.00000   360.00000     2.60849
    21.40000   180.00000   360.00000     2.60843   180.00000   360.00000     2.60843
    21.50000   180.00000   360.00000     2.60838   180.00000   360.00000     2.60838
    21.60000   180.00000   180.00000     2.60833   180.00000   180.00000     2.60833
    21.70000   180.00000   180.00000     2.60828   180.00000   180.00000     2.60828
    21.80000   180.00000   180.00000     2.60823   180.00000   180.00000     2.60823
    21.90000   180.00000   360.00000     2.60817   180.00000   360.00000     2.60817
    22.00000   180.00000   180.00000     2.60812   180.00000   180.00000     2.60812
    22.10000   180.00000   180.00000     2.60807   180.00000   180.00000     2.60807
    22.20000   180.00000   360.00000     2.60802   180.00000   360.00000     2.60802
    22.30000   180.00000   180.00000     2.60797   180.00000   180.00000     2.60797
    22.40000   180.00000   180.00000     2.60791   180.00000   180.00000     2.60791
    22.50000   180.00000   360.00000     2.60786   180.00000   360.00000     2.60786
    22.60000   180.00000   180.00000     2.60781   180.00000   180.00000     2.60781
    22.70000   180.00000   180.00000     2.60776   180.00000   180.00000     2.60776
    22.80000   180.00000   180.00000     2.60770   180.00000   180.00000     2.60770
    22.90000   180.00000   360.00000     2.60765   180.00000   360.00000     2.60765
    23.00000   180.00000   180.00000     2.60760   180.00000   180.00000     2.60760
    23.10000   180.00000   360.00000     2.60755   180.00000   360.00000     2.60755
    23.20000   180.00000   180.00000     2.60750   180.00000   180.00000     2.60750
    23.30000   180.00000   360.00000     2.60744   180.00000   360.00000     2.60744
    23.40000   180.00000   360.00000     2.60739   180.00000   360.00000     2.60739
    23.50000   180.00000   180.00000     2.60734   180.00000   180.00000     2.60734
    23.60000   180.00000   180.00000     2.60729   180.00000   180.00000     2.60729
    23.70000   180.00000   360.00000     2.60723   180.00000   360.00000     2.60723
    23.80000   180.00000   180.00000     2.60718   180.00000   180.00000     2.60718
    23.90000   180.00000   360.00000     2.60713   180.00000   360.00000     2.60713
    24.00000   180.00000   360.00000     2.60708   180.00000   360.00000     2.60708
    24.10000   180.00000   180.00000     2.60702   180.00000   180.00000     2.60702
    24.20000   180.00000   360.00000     2.60697   180.00000   360.00000     2.60697
    24.30000   180.00000   360.00000     2.60692   180.00000   360.00000     2.60692
    24.40000   180.00000   180.00000     2.60687   180.00000   180.00000     2.60687
    24.50000   180.00000   360.00000     2.60681   180.00000   360.00000     2.60681
    24.60000   180.00000   180.00000     2.60676   180.00000   180.00000     2.60676
    24.70000   180.00000   360.00000     2.60671   180.00000   360.00000     2.60671
    24.80000   180.00000   180.00000     2.60666   180.00000   180.00000     2.60666
    24.90000   180.00000   180.00000     2.60660   180.00000   180.00000     2.60660
    25.00000   180.00000   180.00000     2.60655   180.00000   180.00000     2.60655
    25.10000   180.00000   180.00000     2.60650   180.00000   180.00000     2.60650
    25.20000   180.00000   360.00000     2.60644   180.00000   360.00000     2.60644
    25.30000   180.00000   360.00000     2.60639   180.00000   360.00000     2.60639
    25.40000   180.00000   360.00000     2.60634   180.00000   360.00000     2.60634
    25.50000   180.00000   180.00000     2.60629   180.00000   180.00000     2.60629
    25.60000   180.00000   180.00000     2.60623   180.00000   180.00000     2.60623
    25.70000   180.00000   360.00000     2.60618   180.00000   360.00000     2.60618
    25.80000   180.00000   360.00000     2.60613   180.00000   360.00000     2.60613
    25.90000   180.00000   180.00000     2.60608   180.00000   180.00000     2.60608
    26.00000   180.00000   360.00000     2.60602   180.00000   360.00000     2.60602
    26.10000   180.00000   360.00000     2.60597   180.00000   360.00000     2.60597
    26.20000   180.00000   180.00000     2.60592   180.00000   180.00000     2.60592
    26.30000   180.00000   360.00000     2.60586   180.00000   360.00000     2.60586
    26.40000   180.00000   360.00000     2.60581   180.00000   360.00000     2.60581
    26.50000   180.00000   180.00000     2.60576   180.00000   180.00000     2.60576
    26.60000   180.00000   180.00000     2.60570   180.00000   180.00000     2.60570
    26.70000   180.00000   180.00000     2.60565   180.00000   180.00000     2.60565
    26.80000   180.00000   180.00000     2.60560   180.00000   180.00000     2.60560
    26.90000   180.00000   180.00000     2.60555   180.00000   180.00000     2.60555
    27.00000   180.00000   360.00000     2.60549   180.00000   360.00000     2.60549
    27.10000   180.00000   360.00000     2.60544   180.00000   360.00000     2.60544
    27.20000   180.00000   360.00000     2.60539   180.00000   360.00000     2.60539
    27.30000   180.00000   180.00000     2.60533   180.00000   180.00000     2.60533
    27.40000   180.00000   360.00000     2.60528   180.00000   360.00000     2.60528
    27.50000   180.00000   180.00000     2.60523   180.00000   180.00000     2.60523
    27.60000   180.00000   180.00000     2.60517   180.00000   180.00000     2.60517
    27.70000   180.00000   180.00000     2.60512   180.00000   180.00000     2.60512
    27.80000   180.00000   360.00000     2.60507   180.00000   360.00000     2.60507
    27.90000   180.00000   180.00000     2.60501   180.00000   180.00000     2.60501
    28.00000   180.00000   180.00000     2.60496   180.00000   180.00000     2.60496
    28.10000   180.00000   180.00000     2.60491   180.00000   180.00000     2.60491
    28.20000   180.00000   180.00000     2.60485   180.00000   180.00000     2.60485
    28.30000   180.00000   180.00000     2.60480   180.00000   180.00000     2.60480
    28.40000   180.00000   360.00000     2.60475   180.00000   360.00000     2.60475
    28.50000   180.00000   180.00000     2.60469   180.00000   180.00000     2.60469
    28.60000   180.00000   360.00000     2.60464   180.00000   360.00000     2.60464
    28.70000   180.00000   360.00000     2.60459   180.00000   360.00000     2.60459
    28.80000   180.00000   360.00000     2.60453   180.00000   360.00000     2.60453
    28.90000   180.00000   360.00000     2.60448   180.00000   360.00000     2.60448
    29.00000   180.00000   180.00000     2.60442   180.00000   180.00000     2.60442
    29.10000   180.00000   360.00000     2.60437   180.00000   360.00000     2.60437
    29.20000   180.00000   360.00000     2.60432   180.00000   360.00000     2.60432
    29.30000   180.00000   360.00000     2.60426   180.00000   360.00000     2.60426
    29.40000   180.00000   180.00000     2.60421   180.00000   180.00000     2.60421
    29.50000   180.00000   180.00000     2.60416   180.00000   180.00000     2.60416
    29.60000   180.00000   180.00000     2.60410   180.00000   180.00000     2.60410
    29.70000   180.00000   360.00000     2.60405   180.00000   360.00000     2.60405
    29.80000   180.00000   180.00000     2.60400   180.00000   180.00000     2.60400
    29.90000   180.00000   180.00000     2.60394   180.00000   180.00000     2.60394
    30.00000   180.00000   360.00000     2.60389   180.00000   360.00000     2.60389
    30.10000   180.00000   180.00000     2.60383   180.00000   180.00000     2.60383
    30.20000   180.00000   360.00000     2.60378   180.00000   360.00000     2.60378
    30.30000   180.00000   180.00000     2.60373   180.00000   180.00000     2.60373
    30.40000   180.00000   180.00000     2.60367   180.00000   180.00000     2.60367
    30.50000   180.00000   180.00000     2.60362   180.00000   180.00000     2.60362
    30.60000   180.00000   180.00000     2.60357   180.00000   180.00000     2.60357
    30.70000   180.00000   360.00000     2.60351   180.00000   360.00000     2.60351
    30.80000   180.00000   360.00000     2.60346   180.00000   360.00000     2.60346
    30.90000   180.00000   180.00000     2.60340   180.00000   180.00000     2.60340
    31.00000   180.00000   360.00000     2.60335   180.00000   360.00000     2.60335
    31.10000   180.00000   360.00000     2.60330   180.00000   360.00000     2.60330
    31.20000   180.00000   360.00000     2.60324   180.00000   360.00000     2.60324
    31.30000   180.00000   360.00000     2.60319   180.00000   360.00000     2.60319
    31.40000   180.00000   360.00000     2.60313   180.00000   360.00000     2.60313
    31.50000   180.00000   180.00000     2.60308   180.00000   180.00000     2.60308
    31.60000   180.00000   180.00000     2.60303   180.00000   180.00000     2.60303
    31.70000   180.00000   360.00000     2.60297   180.00000   360.00000     2.60297
    31.80000   180.00000   180.00000     2.60292   180.00000   180.00000     2.60292
    31.90000   180.00000   180.00000     2.60286   180.00000   180.00000     2.60286
    32.00000   180.00000   180.00000     2.60281   180.00000   180.00000     2.60281
    32.10000   180.00000   360.00000     2.60275   180.00000   360.00000     2.60275
    32.20000   180.00000   360.00000     2.60270   180.00000   360.00000     2.60270
    32.30000   180.00000   360.00000     2.60265   180.00000   360.00000     2.60265
    32.40000   180.00000   360.00000     2.60259   180.00000   360.00000     2.60259
    32.50000   180.00000   180.00000     2.60254   180.00000   180.00000     2.60254
    32.60000   180.00000   180.00000     2.60248   180.00000   180.00000     2.60248
    32.70000   180.00000   360.00000     2.60243   180.00000   360.00000     2.60243
    32.80000   180.00000   180.00000     2.60237   180.00000   180.00000     2.60237
    32.90000   180.00000   360.00000     2.60232   180.00000   360.00000     2.60232
    33.00000   180.00000   360.00000     2.60227   180.00000   360.00000     2.60227
    33.10000   180.00000   180.00000     2.60221   180.00000   180.00000     2.60221
    33.20000   180.00000   360.00000     2.60216   180.00000   360.00000     2.60216
    33.30000   180.00000   360.00000     2.60210   180.00000   360.00000     2.60210
    33.40000   180.00000   360.00000     2.60205   180.00000   360.00000     2.60205
    33.50000   180.00000   180.00000     2.60199   180.00000   180.00000     2.60199
    33.60000   180.00000   360.00000     2.60194   180.00000   360.00000     2.60194
    33.70000   180.00000   180.00000     2.60188   180.00000   180.00000     2.60188
    33.80000   180.00000   180.00000     2.60183   180.00000   180.00000     2.60183
    33.90000   180.00000   360.00000     2.60177   180.00000   360.00000     2.60177
    34.00000   180.00000   180.00000     2.60172   180.00000   180.00000     2.60172
    34.10000   180.00000   180.00000     2.60167   180.00000   180.00000     2.60167
    34.20000   180.00000   180.00000     2.60161   180.00000   180.00000     2.60161
    34.30000   180.00000   180.00000     2.60156   180.00000   180.00000     2.60156
    34.40000   180.00000   180.00000     2.60150   180.00000   180.00000     2.60150
    34.50000   180.00000   180.00000     2.60145   180.00000   180.00000     2.60145
    34.60000   180.00000   180.00000     2.60139   180.00000   180.00000     2.60139
    34.70000   180.00000   180.00000     2.60134   180.00000   180.00000     2.60134
    34.80000   180.00000   180.00000     2.60128   180.00000   180.00000     2.60128
    34.90000   180.00000   360.00000     2.60123   180.00000   360.00000     2.60123
    35.00000   180.00000   180.00000     2.60117   180.00000   180.00000     2.60117
    35.10000   180.00000   180.00000     2.60112   180.00000   180.00000     2.60112
    35.20000   180.00000   180.00000     2.60106   180.00000   180.00000     2.60106
    35.30000   180.00000   360.00000     2.60101   180.00000   360.00000     2.60101
    35.40000   180.00000   180.00000     2.60095   180.00000   180.00000     2.60095
    35.50000   180.00000   360.00000     2.60090   180.00000   360.00000     2.60090
    35.60000   180.00000   360.00000     2.60084   180.00000   360.00000     2.60084
    35.70000   180.00000   180.00000     2.60079   180.00000   180.00000     2.60079
    35.80000   180.00000   360.00000     2.60073   180.00000   360.00000     2.60073
    35.90000   180.00000   360.00000     2.60068   180.00000   360.00000     2.60068
    36.00000   180.00000   360.00000     2.60062   180.00000   360.00000     2.60062
    36.10000   180.00000   360.00000     2.60057   180.00000   360.00000     2.60057
    36.20000   180.00000   180.00000     2.60051   180.00000   180.00000     2.60051
    36.30000   180.00000   360.00000     2.60046   180.00000   360.00000     2.60046
    36.40000   180.00000   360.00000     2.60040   180.00000   360.00000     2.60040
    36.50000   180.00000   360.00000     2.60035   180.00000   360.00000     2.60035
    36.60000   180.00000   180.00000     2.60029   180.00000   180.00000     2.60029
    36.70000   180.00000   180.00000     2.60024   180.00000   180.00000     2.60024
    36.80000   180.00000   180.00000     2.60018   180.00000   180.00000     2.60018
    36.90000   180.00000   180.00000     2.60013   180.00000   180.00000     2.60013
    37.00000   180.00000   360.00000     2.60007   180.00000   360.00000     2.60007
    37.10000   180.00000   360.00000     2.60002   180.00000   360.00000     2.60002
    37.20000   180.00000   180.00000     2.59996   180.00000   180.00000     2.59996
    37.30000   180.00000   360.00000     2.59991   180.00000   360.00000     2.59991
    37.40000   180.00000   180.00000     2.59985   180.00000   180.00000     2.59985
    37.50000   180.00000   180.00000     2.59979   180.00000   180.00000     2.59979
    37.60000   180.00000   360.00000     2.59974   180.00000   360.00000     2.59974
    37.70000   180.00000   180.00000     2.59968   180.00000   180.00000     2.59968
    37.80000   180.00000   360.00000     2.59963   180.00000   360.00000     2.59963
    37.90000   180.00000   360.00000     2.59957   180.00000   360.00000     2.59957
    38.00000   180.00000   360.00000     2.59952   180.00000   360.00000     2.59952
    38.10000   180.00000   180.00000     2.59946   180.00000   180.00000     2.59946
    38.20000   180.00000   360.00000     2.59941   180.00000   360.00000     2.59941
    38.30000   180.00000   360.00000     2.59935   180.00000   360.00000     2.59935
    38.40000   180.00000   360.00000     2.59929   180.00000   360.00000     2.59929
    38.50000   180.00000   360.00000     2.59924   180.00000   360.00000     2.59924
    38.60000   180.00000   360.00000     2.59918   180.00000   360.00000     2.59918
    38.70000   180.00000   180.00000     2.59913   180.00000   180.00000     2.59913
    38.80000   180.00000   180.00000     2.59907   180.00000   180.00000     2.59907
    38.90000   180.00000   360.00000     2.59902   180.00000   360.00000     2.59902
    39.00000   180.00000   180.00000     2.59896   180.00000   180.00000     2.59896
    39.10000   180.00000   360.00000     2.59891   180.00000   360.00000     2.59891
    39.20000   180.00000   180.00000     2.59885   180.00000   180.00000     2.59885
    39.30000   180.00000   180.00000     2.59879   180.00000   180.00000     2.59879
    39.40000   180.00000   180.00000     2.59874   180.00000   180.00000     2.59874
    39.50000   180.00000   360.00000     2.59868   180.00000   360.00000     2.59868
    39.60000   180.00000   180.00000     2.59863   180.00000   180.00000     2.59863
    39.70000   180.00000   180.00000     2.59857   180.00000   180.00000     2.59857
    39.80000   180.00000   180.00000     2.59851   180.00000   180.00000     2.59851
    39.90000   180.00000   180.00000     2.59846   180.00000   180.00000     2.59846
    40.00000   180.00000   180.00000     2.59840   180.00000   180.00000     2.59840
