 # applied field (T), theta (degree), phi (degree), abs for RE 3-4
     0.00000     0.00000     0.00000     3.62762     0.00000     0.00000     3.62762
     0.10000     0.66409   360.00000     3.62760     0.64308   360.00000     3.62757
     0.20000     1.32824   360.00000     3.62752     1.28623   360.00000     3.62743
     0.30000     1.99252   360.00000     3.62740     1.92952   360.00000     3.62720
     0.40000     2.65699   360.00000     3.62723     2.57303   360.00000     3.62687
     0.50000     3.32171   360.00000     3.62702     3.21683   360.00000     3.62645
     0.60000     3.93580   360.00000     3.62677     3.81164   360.00000     3.62598
     0.70000     4.60118   360.00000     3.62647     4.45619   360.00000     3.62538
     0.80000     5.26698   360.00000     3.62611     5.10124   360.00000     3.62469
     0.90000     5.93328   360.00000     3.62571     5.74685   360.00000     3.62390
     1.00000     6.60013   360.00000     3.62526     6.39310   360.00000     3.62303
     1.10000     7.26758   360.00000     3.62476     7.04005   360.00000     3.62206
     1.20000     7.98691   360.00000     3.62418     7.73742   360.00000     3.62092
     1.30000     8.65582   360.00000     3.62359     8.38606   360.00000     3.61977
     1.40000     9.32552   360.00000     3.62296     9.03562   360.00000     3.61853
     1.50000     9.99606   360.00000     3.62229     9.68617   360.00000     3.61720
     1.60000    10.66751   360.00000     3.62157    10.33776   360.00000     3.61579
     1.70000    11.39146   360.00000     3.62075    11.04051   360.00000     3.61417
     1.80000    12.06495   360.00000     3.61994    11.69450   360.00000     3.61258
     1.90000    12.73952   360.00000     3.61910    12.34974   360.00000     3.61091
     2.00000    13.46701   360.00000     3.61814    13.05665   360.00000     3.60902
     2.10000    14.19586   360.00000     3.61714    13.76515   360.00000     3.60703
     2.20000    14.87413   360.00000     3.61618    14.42475   360.00000     3.60511
     2.30000    15.60579   360.00000     3.61509    15.13657   360.00000     3.60295
     2.40000    16.33899   360.00000     3.61397    15.85021   360.00000     3.60070
     2.50000    17.07379   360.00000     3.61281    16.56575   360.00000     3.59836
     2.60000    17.75778   360.00000     3.61169    17.23214   360.00000     3.59612
     2.70000    18.54840   360.00000     3.61036    18.00280   360.00000     3.59344
     2.80000    19.28831   360.00000     3.60908    18.72445   360.00000     3.59086
     2.90000    20.03003   360.00000     3.60777    19.44827   360.00000     3.58820
     3.00000    20.77361   360.00000     3.60642    20.17432   360.00000     3.58547
     3.10000    21.57220   360.00000     3.60494    20.95459   360.00000     3.58246
     3.20000    22.31976   360.00000     3.60352    21.68548   360.00000     3.57957
     3.30000    23.12272   360.00000     3.60197    22.47105   360.00000     3.57641
     3.40000    23.92801   360.00000     3.60038    23.25947   360.00000     3.57316
     3.50000    24.73566   360.00000     3.59875    24.05081   360.00000     3.56985
     3.60000    25.54573   360.00000     3.59710    24.84512   360.00000     3.56647
     3.70000    26.41233   360.00000     3.59530    25.69555   360.00000     3.56279
     3.80000    27.22750   360.00000     3.59358    26.49620   360.00000     3.55927
     3.90000    28.09961   360.00000     3.59171    27.35352   360.00000     3.55546
     4.00000    28.97463   360.00000     3.58981    28.21448   360.00000     3.55158
     4.10000    29.85258   360.00000     3.58788    29.07914   360.00000     3.54765
     4.20000    30.73350   360.00000     3.58591    29.94757   360.00000     3.54366
     4.30000    31.67259   360.00000     3.58379    30.87427   360.00000     3.53937
     4.40000    32.61507   360.00000     3.58164    31.80532   360.00000     3.53503
     4.50000    33.56098   360.00000     3.57945    32.74077   360.00000     3.53064
     4.60000    34.51033   360.00000     3.57723    33.68065   360.00000     3.52622
     4.70000    35.51914   360.00000     3.57484    34.68055   360.00000     3.52150
     4.80000    36.53184   360.00000     3.57242    35.68550   360.00000     3.51674
     4.90000    37.54843   360.00000     3.56996    36.69553   360.00000     3.51196
     5.00000    38.62559   360.00000     3.56732    37.76707   360.00000     3.50690
     5.10000    39.70709   360.00000     3.56465    38.84431   360.00000     3.50182
     5.20000    40.85007   360.00000     3.56179    39.98429   360.00000     3.49647
     5.30000    41.99784   360.00000     3.55888    41.13059   360.00000     3.49112
     5.40000    43.15039   360.00000     3.55594    42.28320   360.00000     3.48579
     5.50000    44.36556   360.00000     3.55279    43.50008   360.00000     3.48021
     5.60000    45.64407   360.00000     3.54945    44.78219   360.00000     3.47440
     5.70000    46.92825   360.00000     3.54605    46.07180   360.00000     3.46864
     5.80000    48.27669   360.00000     3.54245    47.42785   360.00000     3.46268
     5.90000    49.69013   360.00000     3.53863    48.85131   360.00000     3.45655
     6.00000    51.16927   360.00000     3.53461    50.34310   360.00000     3.45026
     6.10000    52.65534   360.00000     3.53053    51.84401   360.00000     3.44410
     6.20000    54.26775   360.00000     3.52608    53.47485   360.00000     3.43760
     6.30000    56.00805   360.00000     3.52126    55.23761   360.00000     3.43081
     6.40000    57.81737   360.00000     3.51626    57.07296   360.00000     3.42403
     6.50000    59.69628   360.00000     3.51109    58.98161   360.00000     3.41730
     6.60000    61.76730   360.00000     3.50547    61.08839   360.00000     3.41027
     6.70000    64.03267   360.00000     3.49944    63.39618   360.00000     3.40308
     6.80000    66.55614   360.00000     3.49297    65.97057   360.00000     3.39569
     6.90000    69.40248   360.00000     3.48608    68.87849   360.00000     3.38819
     7.00000    72.69962   360.00000     3.47880    72.25167   360.00000     3.38065
     7.10000    76.89052   360.00000     3.47093    76.54515   360.00000     3.37288
     7.20000    83.36997   360.00000     3.46254    83.19238   360.00000     3.36503
     7.30000    90.00000   360.00000     3.45962    90.00000   360.00000     3.36239
     7.40000    90.00000   360.00000     3.45973    90.00000   360.00000     3.36251
     7.50000    90.00000   360.00000     3.45984    90.00000   360.00000     3.36263
     7.60000    90.00000   360.00000     3.45995    90.00000   360.00000     3.36274
     7.70000    90.00000   360.00000     3.46006    90.00000   360.00000     3.36286
     7.80000    90.00000   360.00000     3.46017    90.00000   360.00000     3.36298
     7.90000    90.00000   360.00000     3.46028    90.00000   360.00000     3.36310
     8.00000    90.00000   360.00000     3.46039    90.00000   360.00000     3.36321
     8.10000    90.00000   360.00000     3.46050    90.00000   360.00000     3.36333
     8.20000    90.00000   360.00000     3.46062    90.00000   360.00000     3.36345
     8.30000    90.00000   360.00000     3.46073    90.00000   360.00000     3.36356
     8.40000    90.00000   360.00000     3.46084    90.00000   360.00000     3.36368
     8.50000    90.00000   360.00000     3.46095    90.00000   360.00000     3.36380
     8.60000    90.00000   360.00000     3.46106    90.00000   360.00000     3.36391
     8.70000    90.00000   360.00000     3.46117    90.00000   360.00000     3.36403
     8.80000    90.00000   360.00000     3.46128    90.00000   360.00000     3.36415
     8.90000    90.00000   360.00000     3.46139    90.00000   360.00000     3.36426
     9.00000    90.00000   360.00000     3.46150    90.00000   360.00000     3.36438
     9.10000    90.00000   360.00000     3.46161    90.00000   360.00000     3.36450
     9.20000    90.00000   360.00000     3.46172    90.00000   360.00000     3.36461
     9.30000    90.00000   360.00000     3.46183    90.00000   360.00000     3.36473
     9.40000    90.00000   360.00000     3.46194    90.00000   360.00000     3.36484
     9.50000    90.00000   360.00000     3.46205    90.00000   360.00000     3.36496
     9.60000    90.00000   360.00000     3.46216    90.00000   360.00000     3.36508
     9.70000    90.00000   360.00000     3.46227    90.00000   360.00000     3.36519
     9.80000    90.00000   360.00000     3.46238    90.00000   360.00000     3.36531
     9.90000    90.00000   360.00000     3.46249    90.00000   360.00000     3.36543
    10.00000    90.00000   360.00000     3.46260    90.00000   360.00000     3.36554
    10.10000    90.00000   360.00000     3.46271    90.00000   360.00000     3.36566
    10.20000    90.00000   360.00000     3.46282    90.00000   360.00000     3.36578
    10.30000    90.00000   360.00000     3.46293    90.00000   360.00000     3.36589
    10.40000    90.00000   360.00000     3.46304    90.00000   360.00000     3.36601
    10.50000    90.00000   360.00000     3.46315    90.00000   360.00000     3.36612
    10.60000    90.00000   360.00000     3.46326    90.00000   360.00000     3.36624
    10.70000    90.00000   360.00000     3.46337    90.00000   360.00000     3.36636
    10.80000    90.00000   360.00000     3.46348    90.00000   360.00000     3.36647
    10.90000    90.00000   360.00000     3.46359    90.00000   360.00000     3.36659
    11.00000    90.00000   360.00000     3.46370    90.00000   360.00000     3.36670
    11.10000    90.00000   360.00000     3.46381    90.00000   360.00000     3.36682
    11.20000    90.00000   360.00000     3.46392    90.00000   360.00000     3.36694
    11.30000    90.00000   360.00000     3.46403    90.00000   360.00000     3.36705
    11.40000    90.00000   360.00000     3.46414    90.00000   360.00000     3.36717
    11.50000    90.00000   360.00000     3.46425    90.00000   360.00000     3.36728
    11.60000    90.00000   360.00000     3.46436    90.00000   360.00000     3.36740
    11.70000    90.00000   360.00000     3.46447    90.00000   360.00000     3.36751
    11.80000    90.00000   360.00000     3.46458    90.00000   360.00000     3.36763
    11.90000    90.00000   360.00000     3.46469    90.00000   360.00000     3.36775
    12.00000    90.00000   360.00000     3.46480    90.00000   360.00000     3.36786
    12.10000    90.00000   360.00000     3.46491    90.00000   360.00000     3.36798
    12.20000    90.00000   360.00000     3.46502    90.00000   360.00000     3.36809
    12.30000    90.00000   360.00000     3.46513    90.00000   360.00000     3.36821
    12.40000    90.00000   360.00000     3.46524    90.00000   360.00000     3.36832
    12.50000    90.00000   360.00000     3.46535    90.00000   360.00000     3.36844
    12.60000    90.00000   360.00000     3.46546    90.00000   360.00000     3.36855
    12.70000    90.00000   360.00000     3.46557    90.00000   360.00000     3.36867
    12.80000    90.00000   360.00000     3.46568    90.00000   360.00000     3.36879
    12.90000    90.00000   360.00000     3.46579    90.00000   360.00000     3.36890
    13.00000    90.00000   360.00000     3.46590    90.00000   360.00000     3.36902
    13.10000    90.00000   360.00000     3.46601    90.00000   360.00000     3.36913
    13.20000    90.00000   360.00000     3.46611    90.00000   360.00000     3.36925
    13.30000    90.00000   360.00000     3.46622    90.00000   360.00000     3.36936
    13.40000    90.00000   360.00000     3.46633    90.00000   360.00000     3.36948
    13.50000    90.00000   360.00000     3.46644    90.00000   360.00000     3.36959
    13.60000    90.00000   360.00000     3.46655    90.00000   360.00000     3.36971
    13.70000    90.00000   360.00000     3.46666    90.00000   360.00000     3.36982
    13.80000    90.00000   360.00000     3.46677    90.00000   360.00000     3.36994
    13.90000    90.00000   360.00000     3.46688    90.00000   360.00000     3.37005
    14.00000    90.00000   360.00000     3.46699    90.00000   360.00000     3.37017
    14.10000    90.00000   360.00000     3.46710    90.00000   360.00000     3.37028
    14.20000    90.00000   360.00000     3.46720    90.00000   360.00000     3.37040
    14.30000    90.00000   360.00000     3.46731    90.00000   360.00000     3.37051
    14.40000    90.00000   360.00000     3.46742    90.00000   360.00000     3.37063
    14.50000    90.00000   360.00000     3.46753    90.00000   360.00000     3.37074
    14.60000    90.00000   360.00000     3.46764    90.00000   360.00000     3.37086
    14.70000    90.00000   360.00000     3.46775    90.00000   360.00000     3.37097
    14.80000    90.00000   360.00000     3.46786    90.00000   360.00000     3.37109
    14.90000    90.00000   360.00000     3.46797    90.00000   360.00000     3.37120
    15.00000    90.00000   360.00000     3.46808    90.00000   360.00000     3.37132
    15.10000    90.00000   360.00000     3.46818    90.00000   360.00000     3.37143
    15.20000    90.00000   360.00000     3.46829    90.00000   360.00000     3.37155
    15.30000    90.00000   360.00000     3.46840    90.00000   360.00000     3.37166
    15.40000    90.00000   360.00000     3.46851    90.00000   360.00000     3.37177
    15.50000    90.00000   360.00000     3.46862    90.00000   360.00000     3.37189
    15.60000    90.00000   360.00000     3.46873    90.00000   360.00000     3.37200
    15.70000    90.00000   360.00000     3.46884    90.00000   360.00000     3.37212
    15.80000    90.00000   360.00000     3.46894    90.00000   360.00000     3.37223
    15.90000    90.00000   360.00000     3.46905    90.00000   360.00000     3.37235
    16.00000    90.00000   360.00000     3.46916    90.00000   360.00000     3.37246
    16.10000    90.00000   360.00000     3.46927    90.00000   360.00000     3.37258
    16.20000    90.00000   360.00000     3.46938    90.00000   360.00000     3.37269
    16.30000    90.00000   360.00000     3.46949    90.00000   360.00000     3.37280
    16.40000    90.00000   360.00000     3.46959    90.00000   360.00000     3.37292
    16.50000    90.00000   360.00000     3.46970    90.00000   360.00000     3.37303
    16.60000    90.00000   360.00000     3.46981    90.00000   360.00000     3.37315
    16.70000    90.00000   360.00000     3.46992    90.00000   360.00000     3.37326
    16.80000    90.00000   360.00000     3.47003    90.00000   360.00000     3.37338
    16.90000    90.00000   360.00000     3.47013    90.00000   360.00000     3.37349
    17.00000    90.00000   360.00000     3.47024    90.00000   360.00000     3.37360
    17.10000    90.00000   360.00000     3.47035    90.00000   360.00000     3.37372
    17.20000    90.00000   360.00000     3.47046    90.00000   360.00000     3.37383
    17.30000    90.00000   360.00000     3.47057    90.00000   360.00000     3.37395
    17.40000    90.00000   360.00000     3.47067    90.00000   360.00000     3.37406
    17.50000    90.00000   360.00000     3.47078    90.00000   360.00000     3.37417
    17.60000    90.00000   360.00000     3.47089    90.00000   360.00000     3.37429
    17.70000    90.00000   360.00000     3.47100    90.00000   360.00000     3.37440
    17.80000    90.00000   360.00000     3.47111    90.00000   360.00000     3.37452
    17.90000    90.00000   360.00000     3.47121    90.00000   360.00000     3.37463
    18.00000    90.00000   360.00000     3.47132    90.00000   360.00000     3.37474
    18.10000    90.00000   360.00000     3.47143    90.00000   360.00000     3.37486
    18.20000    90.00000   360.00000     3.47154    90.00000   360.00000     3.37497
    18.30000    90.00000   360.00000     3.47164    90.00000   360.00000     3.37508
    18.40000    90.00000   360.00000     3.47175    90.00000   360.00000     3.37520
    18.50000    90.00000   360.00000     3.47186    90.00000   360.00000     3.37531
    18.60000    90.00000   360.00000     3.47197    90.00000   360.00000     3.37543
    18.70000    90.00000   360.00000     3.47207    90.00000   360.00000     3.37554
    18.80000    90.00000   360.00000     3.47218    90.00000   360.00000     3.37565
    18.90000    90.00000   360.00000     3.47229    90.00000   360.00000     3.37577
    19.00000    90.00000   360.00000     3.47240    90.00000   360.00000     3.37588
    19.10000    90.00000   360.00000     3.47250    90.00000   360.00000     3.37599
    19.20000    90.00000   360.00000     3.47261    90.00000   360.00000     3.37611
    19.30000    90.00000   360.00000     3.47272    90.00000   360.00000     3.37622
    19.40000    90.00000   360.00000     3.47283    90.00000   360.00000     3.37633
    19.50000    90.00000   360.00000     3.47293    90.00000   360.00000     3.37645
    19.60000    90.00000   360.00000     3.47304    90.00000   360.00000     3.37656
    19.70000    90.00000   360.00000     3.47315    90.00000   360.00000     3.37667
    19.80000    90.00000   360.00000     3.47325    90.00000   360.00000     3.37679
    19.90000    90.00000   360.00000     3.47336    90.00000   360.00000     3.37690
    20.00000    90.00000   360.00000     3.47347    90.00000   360.00000     3.37701
    20.10000    90.00000   360.00000     3.47358    90.00000   360.00000     3.37713
    20.20000    90.00000   360.00000     3.47368    90.00000   360.00000     3.37724
    20.30000    90.00000   360.00000     3.47379    90.00000   360.00000     3.37735
    20.40000    90.00000   360.00000     3.47390    90.00000   360.00000     3.37747
    20.50000    90.00000   360.00000     3.47400    90.00000   360.00000     3.37758
    20.60000    90.00000   360.00000     3.47411    90.00000   360.00000     3.37769
    20.70000    90.00000   360.00000     3.47422    90.00000   360.00000     3.37780
    20.80000    90.00000   360.00000     3.47433    90.00000   360.00000     3.37792
    20.90000    90.00000   360.00000     3.47443    90.00000   360.00000     3.37803
    21.00000    90.00000   360.00000     3.47454    90.00000   360.00000     3.37814
    21.10000    90.00000   360.00000     3.47465    90.00000   360.00000     3.37826
    21.20000    90.00000   360.00000     3.47475    90.00000   360.00000     3.37837
    21.30000    90.00000   360.00000     3.47486    90.00000   360.00000     3.37848
    21.40000    90.00000   360.00000     3.47497    90.00000   360.00000     3.37859
    21.50000    90.00000   360.00000     3.47507    90.00000   360.00000     3.37871
    21.60000    90.00000   360.00000     3.47518    90.00000   360.00000     3.37882
    21.70000    90.00000   360.00000     3.47529    90.00000   360.00000     3.37893
    21.80000    90.00000   360.00000     3.47539    90.00000   360.00000     3.37905
    21.90000    90.00000   360.00000     3.47550    90.00000   360.00000     3.37916
    22.00000    90.00000   360.00000     3.47561    90.00000   360.00000     3.37927
    22.10000    90.00000   360.00000     3.47571    90.00000   360.00000     3.37938
    22.20000    90.00000   360.00000     3.47582    90.00000   360.00000     3.37950
    22.30000    90.00000   360.00000     3.47592    90.00000   360.00000     3.37961
    22.40000    90.00000   360.00000     3.47603    90.00000   360.00000     3.37972
    22.50000    90.00000   360.00000     3.47614    90.00000   360.00000     3.37983
    22.60000    90.00000   360.00000     3.47624    90.00000   360.00000     3.37995
    22.70000    90.00000   360.00000     3.47635    90.00000   360.00000     3.38006
    22.80000    90.00000   360.00000     3.47646    90.00000   360.00000     3.38017
    22.90000    90.00000   360.00000     3.47656    90.00000   360.00000     3.38028
    23.00000    90.00000   360.00000     3.47667    90.00000   360.00000     3.38039
    23.10000    90.00000   360.00000     3.47677    90.00000   360.00000     3.38051
    23.20000    90.00000   360.00000     3.47688    90.00000   360.00000     3.38062
    23.30000    90.00000   360.00000     3.47699    90.00000   360.00000     3.38073
    23.40000    90.00000   360.00000     3.47709    90.00000   360.00000     3.38084
    23.50000    90.00000   360.00000     3.47720    90.00000   360.00000     3.38096
    23.60000    90.00000   360.00000     3.47731    90.00000   360.00000     3.38107
    23.70000    90.00000   360.00000     3.47741    90.00000   360.00000     3.38118
    23.80000    90.00000   360.00000     3.47752    90.00000   360.00000     3.38129
    23.90000    90.00000   360.00000     3.47762    90.00000   360.00000     3.38140
    24.00000    90.00000   360.00000     3.47773    90.00000   360.00000     3.38152
    24.10000    90.00000   360.00000     3.47783    90.00000   360.00000     3.38163
    24.20000    90.00000   360.00000     3.47794    90.00000   360.00000     3.38174
    24.30000    90.00000   360.00000     3.47805    90.00000   360.00000     3.38185
    24.40000    90.00000   360.00000     3.47815    90.00000   360.00000     3.38196
    24.50000    90.00000   360.00000     3.47826    90.00000   360.00000     3.38208
    24.60000    90.00000   360.00000     3.47836    90.00000   360.00000     3.38219
    24.70000    90.00000   360.00000     3.47847    90.00000   360.00000     3.38230
    24.80000    90.00000   360.00000     3.47858    90.00000   360.00000     3.38241
    24.90000    90.00000   360.00000     3.47868    90.00000   360.00000     3.38252
    25.00000    90.00000   360.00000     3.47879    90.00000   360.00000     3.38263
    25.10000    90.00000   360.00000     3.47889    90.00000   360.00000     3.38275
    25.20000    90.00000   360.00000     3.47900    90.00000   360.00000     3.38286
    25.30000    90.00000   360.00000     3.47910    90.00000   360.00000     3.38297
    25.40000    90.00000   360.00000     3.47921    90.00000   360.00000     3.38308
    25.50000    90.00000   360.00000     3.47931    90.00000   360.00000     3.38319
    25.60000    90.00000   360.00000     3.47942    90.00000   360.00000     3.38330
    25.70000    90.00000   360.00000     3.47953    90.00000   360.00000     3.38341
    25.80000    90.00000   360.00000     3.47963    90.00000   360.00000     3.38353
    25.90000    90.00000   360.00000     3.47974    90.00000   360.00000     3.38364
    26.00000    90.00000   360.00000     3.47984    90.00000   360.00000     3.38375
    26.10000    90.00000   360.00000     3.47995    90.00000   360.00000     3.38386
    26.20000    90.00000   360.00000     3.48005    90.00000   360.00000     3.38397
    26.30000    90.00000   360.00000     3.48016    90.00000   360.00000     3.38408
    26.40000    90.00000   360.00000     3.48026    90.00000   360.00000     3.38419
    26.50000    90.00000   360.00000     3.48037    90.00000   360.00000     3.38431
    26.60000    90.00000   360.00000     3.48047    90.00000   360.00000     3.38442
    26.70000    90.00000   360.00000     3.48058    90.00000   360.00000     3.38453
    26.80000    90.00000   360.00000     3.48068    90.00000   360.00000     3.38464
    26.90000    90.00000   360.00000     3.48079    90.00000   360.00000     3.38475
    27.00000    90.00000   360.00000     3.48089    90.00000   360.00000     3.38486
    27.10000    90.00000   360.00000     3.48100    90.00000   360.00000     3.38497
    27.20000    90.00000   360.00000     3.48110    90.00000   360.00000     3.38508
    27.30000    90.00000   360.00000     3.48121    90.00000   360.00000     3.38519
    27.40000    90.00000   360.00000     3.48131    90.00000   360.00000     3.38531
    27.50000    90.00000   360.00000     3.48142    90.00000   360.00000     3.38542
    27.60000    90.00000   360.00000     3.48152    90.00000   360.00000     3.38553
    27.70000    90.00000   360.00000     3.48163    90.00000   360.00000     3.38564
    27.80000    90.00000   360.00000     3.48173    90.00000   360.00000     3.38575
    27.90000    90.00000   360.00000     3.48184    90.00000   360.00000     3.38586
    28.00000    90.00000   360.00000     3.48194    90.00000   360.00000     3.38597
    28.10000    90.00000   360.00000     3.48205    90.00000   360.00000     3.38608
    28.20000    90.00000   360.00000     3.48215    90.00000   360.00000     3.38619
    28.30000    90.00000   360.00000     3.48226    90.00000   360.00000     3.38630
    28.40000    90.00000   360.00000     3.48236    90.00000   360.00000     3.38641
    28.50000    90.00000   360.00000     3.48246    90.00000   360.00000     3.38652
    28.60000    90.00000   360.00000     3.48257    90.00000   360.00000     3.38663
    28.70000    90.00000   360.00000     3.48267    90.00000   360.00000     3.38674
    28.80000    90.00000   360.00000     3.48278    90.00000   360.00000     3.38686
    28.90000    90.00000   360.00000     3.48288    90.00000   360.00000     3.38697
    29.00000    90.00000   360.00000     3.48299    90.00000   360.00000     3.38708
    29.10000    90.00000   360.00000     3.48309    90.00000   360.00000     3.38719
    29.20000    90.00000   360.00000     3.48320    90.00000   360.00000     3.38730
    29.30000    90.00000   360.00000     3.48330    90.00000   360.00000     3.38741
    29.40000    90.00000   360.00000     3.48340    90.00000   360.00000     3.38752
    29.50000    90.00000   360.00000     3.48351    90.00000   360.00000     3.38763
    29.60000    90.00000   360.00000     3.48361    90.00000   360.00000     3.38774
    29.70000    90.00000   360.00000     3.48372    90.00000   360.00000     3.38785
    29.80000    90.00000   360.00000     3.48382    90.00000   360.00000     3.38796
    29.90000    90.00000   360.00000     3.48393    90.00000   360.00000     3.38807
    30.00000    90.00000   360.00000     3.48403    90.00000   360.00000     3.38818
    30.10000    90.00000   360.00000     3.48413    90.00000   360.00000     3.38829
    30.20000    90.00000   360.00000     3.48424    90.00000   360.00000     3.38840
    30.30000    90.00000   360.00000     3.48434    90.00000   360.00000     3.38851
    30.40000    90.00000   360.00000     3.48445    90.00000   360.00000     3.38862
    30.50000    90.00000   360.00000     3.48455    90.00000   360.00000     3.38873
    30.60000    90.00000   360.00000     3.48465    90.00000   360.00000     3.38884
    30.70000    90.00000   360.00000     3.48476    90.00000   360.00000     3.38895
    30.80000    90.00000   360.00000     3.48486    90.00000   360.00000     3.38906
    30.90000    90.00000   360.00000     3.48497    90.00000   360.00000     3.38917
    31.00000    90.00000   360.00000     3.48507    90.00000   360.00000     3.38928
    31.10000    90.00000   360.00000     3.48517    90.00000   360.00000     3.38939
    31.20000    90.00000   360.00000     3.48528    90.00000   360.00000     3.38950
    31.30000    90.00000   360.00000     3.48538    90.00000   360.00000     3.38961
    31.40000    90.00000   360.00000     3.48548    90.00000   360.00000     3.38972
    31.50000    90.00000   360.00000     3.48559    90.00000   360.00000     3.38983
    31.60000    90.00000   360.00000     3.48569    90.00000   360.00000     3.38994
    31.70000    90.00000   360.00000     3.48580    90.00000   360.00000     3.39005
    31.80000    90.00000   360.00000     3.48590    90.00000   360.00000     3.39016
    31.90000    90.00000   360.00000     3.48600    90.00000   360.00000     3.39027
    32.00000    90.00000   360.00000     3.48611    90.00000   360.00000     3.39038
    32.10000    90.00000   360.00000     3.48621    90.00000   360.00000     3.39049
    32.20000    90.00000   360.00000     3.48631    90.00000   360.00000     3.39060
    32.30000    90.00000   360.00000     3.48642    90.00000   360.00000     3.39071
    32.40000    90.00000   360.00000     3.48652    90.00000   360.00000     3.39081
    32.50000    90.00000   360.00000     3.48662    90.00000   360.00000     3.39092
    32.60000    90.00000   360.00000     3.48673    90.00000   360.00000     3.39103
    32.70000    90.00000   360.00000     3.48683    90.00000   360.00000     3.39114
    32.80000    90.00000   360.00000     3.48693    90.00000   360.00000     3.39125
    32.90000    90.00000   360.00000     3.48704    90.00000   360.00000     3.39136
    33.00000    90.00000   360.00000     3.48714    90.00000   360.00000     3.39147
    33.10000    90.00000   360.00000     3.48724    90.00000   360.00000     3.39158
    33.20000    90.00000   360.00000     3.48735    90.00000   360.00000     3.39169
    33.30000    90.00000   360.00000     3.48745    90.00000   360.00000     3.39180
    33.40000    90.00000   360.00000     3.48755    90.00000   360.00000     3.39191
    33.50000    90.00000   360.00000     3.48766    90.00000   360.00000     3.39202
    33.60000    90.00000   360.00000     3.48776    90.00000   360.00000     3.39213
    33.70000    90.00000   360.00000     3.48786    90.00000   360.00000     3.39223
    33.80000    90.00000   360.00000     3.48796    90.00000   360.00000     3.39234
    33.90000    90.00000   360.00000     3.48807    90.00000   360.00000     3.39245
    34.00000    90.00000   360.00000     3.48817    90.00000   360.00000     3.39256
    34.10000    90.00000   360.00000     3.48827    90.00000   360.00000     3.39267
    34.20000    90.00000   360.00000     3.48838    90.00000   360.00000     3.39278
    34.30000    90.00000   360.00000     3.48848    90.00000   360.00000     3.39289
    34.40000    90.00000   360.00000     3.48858    90.00000   360.00000     3.39300
    34.50000    90.00000   360.00000     3.48868    90.00000   360.00000     3.39311
    34.60000    90.00000   360.00000     3.48879    90.00000   360.00000     3.39321
    34.70000    90.00000   360.00000     3.48889    90.00000   360.00000     3.39332
    34.80000    90.00000   360.00000     3.48899    90.00000   360.00000     3.39343
    34.90000    90.00000   360.00000     3.48910    90.00000   360.00000     3.39354
    35.00000    90.00000   360.00000     3.48920    90.00000   360.00000     3.39365
    35.10000    90.00000   360.00000     3.48930    90.00000   360.00000     3.39376
    35.20000    90.00000   360.00000     3.48940    90.00000   360.00000     3.39387
    35.30000    90.00000   360.00000     3.48951    90.00000   360.00000     3.39398
    35.40000    90.00000   360.00000     3.48961    90.00000   360.00000     3.39408
    35.50000    90.00000   360.00000     3.48971    90.00000   360.00000     3.39419
    35.60000    90.00000   360.00000     3.48981    90.00000   360.00000     3.39430
    35.70000    90.00000   360.00000     3.48992    90.00000   360.00000     3.39441
    35.80000    90.00000   360.00000     3.49002    90.00000   360.00000     3.39452
    35.90000    90.00000   360.00000     3.49012    90.00000   360.00000     3.39463
    36.00000    90.00000   360.00000     3.49022    90.00000   360.00000     3.39473
    36.10000    90.00000   360.00000     3.49032    90.00000   360.00000     3.39484
    36.20000    90.00000   360.00000     3.49043    90.00000   360.00000     3.39495
    36.30000    90.00000   360.00000     3.49053    90.00000   360.00000     3.39506
    36.40000    90.00000   360.00000     3.49063    90.00000   360.00000     3.39517
    36.50000    90.00000   360.00000     3.49073    90.00000   360.00000     3.39528
    36.60000    90.00000   360.00000     3.49084    90.00000   360.00000     3.39538
    36.70000    90.00000   360.00000     3.49094    90.00000   360.00000     3.39549
    36.80000    90.00000   360.00000     3.49104    90.00000   360.00000     3.39560
    36.90000    90.00000   360.00000     3.49114    90.00000   360.00000     3.39571
    37.00000    90.00000   360.00000     3.49124    90.00000   360.00000     3.39582
    37.10000    90.00000   360.00000     3.49135    90.00000   360.00000     3.39593
    37.20000    90.00000   360.00000     3.49145    90.00000   360.00000     3.39603
    37.30000    90.00000   360.00000     3.49155    90.00000   360.00000     3.39614
    37.40000    90.00000   360.00000     3.49165    90.00000   360.00000     3.39625
    37.50000    90.00000   360.00000     3.49175    90.00000   360.00000     3.39636
    37.60000    90.00000   360.00000     3.49186    90.00000   360.00000     3.39646
    37.70000    90.00000   360.00000     3.49196    90.00000   360.00000     3.39657
    37.80000    90.00000   360.00000     3.49206    90.00000   360.00000     3.39668
    37.90000    90.00000   360.00000     3.49216    90.00000   360.00000     3.39679
    38.00000    90.00000   360.00000     3.49226    90.00000   360.00000     3.39690
    38.10000    90.00000   360.00000     3.49236    90.00000   360.00000     3.39700
    38.20000    90.00000   360.00000     3.49247    90.00000   360.00000     3.39711
    38.30000    90.00000   360.00000     3.49257    90.00000   360.00000     3.39722
    38.40000    90.00000   360.00000     3.49267    90.00000   360.00000     3.39733
    38.50000    90.00000   360.00000     3.49277    90.00000   360.00000     3.39743
    38.60000    90.00000   360.00000     3.49287    90.00000   360.00000     3.39754
    38.70000    90.00000   360.00000     3.49297    90.00000   360.00000     3.39765
    38.80000    90.00000   360.00000     3.49308    90.00000   360.00000     3.39776
    38.90000    90.00000   360.00000     3.49318    90.00000   360.00000     3.39786
    39.00000    90.00000   360.00000     3.49328    90.00000   360.00000     3.39797
    39.10000    90.00000   360.00000     3.49338    90.00000   360.00000     3.39808
    39.20000    90.00000   360.00000     3.49348    90.00000   360.00000     3.39819
    39.30000    90.00000   360.00000     3.49358    90.00000   360.00000     3.39829
    39.40000    90.00000   360.00000     3.49368    90.00000   360.00000     3.39840
    39.50000    90.00000   360.00000     3.49379    90.00000   360.00000     3.39851
    39.60000    90.00000   360.00000     3.49389    90.00000   360.00000     3.39862
    39.70000    90.00000   360.00000     3.49399    90.00000   360.00000     3.39872
    39.80000    90.00000   360.00000     3.49409    90.00000   360.00000     3.39883
    39.90000    90.00000   360.00000     3.49419    90.00000   360.00000     3.39894
    40.00000    90.00000   360.00000     3.49429    90.00000   360.00000     3.39905
