 # applied field (T), theta (degree), phi (degree), abs [muB/unitcell], abs [T]
       0.00000000       0.00000000       0.00000000      43.29964679       1.45739400
       0.10000000       0.16942944     360.00000000      43.29964615       1.45739398
       0.20000000       0.39510185     360.00000000      43.29964285       1.45739387
       0.30000000       0.56453152     360.00000000      43.29963903       1.45739374
       0.40000000       0.73396137     360.00000000      43.29963393       1.45739357
       0.50000000       0.95963464     360.00000000      43.29962404       1.45739324
       0.60000000       1.12906517     360.00000000      43.29961576       1.45739296
       0.70000000       1.29849608     360.00000000      43.29960621       1.45739264
       0.80000000       1.52417107     360.00000000      43.29958974       1.45739208
       0.90000000       1.69360310     360.00000000      43.29957703       1.45739166
       1.00000000       1.86303570     360.00000000      43.29956304       1.45739118
       1.10000000       2.08871327     360.00000000      43.29954002       1.45739041
       1.20000000       2.25814744     360.00000000      43.29952289       1.45738983
       1.30000000       2.42758237     360.00000000      43.29950450       1.45738921
       1.40000000       2.65326338     360.00000000      43.29947496       1.45738822
       1.50000000       2.82270033     360.00000000      43.29945345       1.45738750
       1.60000000       2.99213823     360.00000000      43.29943068       1.45738673
       1.70000000       3.21782354     360.00000000      43.29939468       1.45738552
       1.80000000       3.38726391     360.00000000      43.29936881       1.45738465
       1.90000000       3.55670541     360.00000000      43.29934171       1.45738373
       2.00000000       3.78239589     360.00000000      43.29929930       1.45738231
       2.10000000       3.95184030     360.00000000      43.29926913       1.45738129
       2.20000000       4.17753491     360.00000000      43.29922220       1.45737971
       2.30000000       4.34698255     360.00000000      43.29918900       1.45737859
       2.40000000       4.51643166     360.00000000      43.29915458       1.45737744
       2.50000000       4.74213289     360.00000000      43.29910137       1.45737565
       2.60000000       4.91158567     360.00000000      43.29906396       1.45737439
       2.70000000       5.08104011     360.00000000      43.29902536       1.45737309
       2.80000000       5.30674881     360.00000000      43.29896595       1.45737109
       2.90000000       5.47620737     360.00000000      43.29892440       1.45736969
       3.00000000       5.64566778     360.00000000      43.29888169       1.45736825
       3.10000000       5.87138482     360.00000000      43.29881618       1.45736605
       3.20000000       6.04084980     360.00000000      43.29877057       1.45736451
       3.30000000       6.21031681     360.00000000      43.29872382       1.45736294
       3.40000000       6.43604305     360.00000000      43.29865232       1.45736053
       3.50000000       6.60551507     360.00000000      43.29860273       1.45735886
       3.60000000       6.77498932     360.00000000      43.29855203       1.45735716
       3.70000000       7.00072561     360.00000000      43.29847466       1.45735455
       3.80000000       7.17020532     360.00000000      43.29842118       1.45735275
       3.90000000       7.33968745     360.00000000      43.29836661       1.45735091
       4.00000000       7.56543466     360.00000000      43.29828350       1.45734812
       4.10000000       7.73492269     360.00000000      43.29822623       1.45734619
       4.20000000       7.90441333     360.00000000      43.29816790       1.45734423
       4.30000000       8.13017230     360.00000000      43.29807919       1.45734124
       4.40000000       8.29966929     360.00000000      43.29801823       1.45733919
       4.50000000       8.46916908     360.00000000      43.29795625       1.45733710
       4.60000000       8.69494066     360.00000000      43.29786208       1.45733393
       4.70000000       8.86444725     360.00000000      43.29779755       1.45733176
       4.80000000       9.03395682     360.00000000      43.29773203       1.45732956
       4.90000000       9.20346943     360.00000000      43.29766552       1.45732732
       5.00000000       9.42925869     360.00000000      43.29756458       1.45732392
       5.10000000       9.59877868     360.00000000      43.29749564       1.45732160
       5.20000000       9.76830190     360.00000000      43.29742576       1.45731925
       5.30000000       9.99410574     360.00000000      43.29731974       1.45731568
       5.40000000      10.16363677     360.00000000      43.29724752       1.45731325
       5.50000000      10.33317123     360.00000000      43.29717439       1.45731079
       5.60000000      10.55899051     360.00000000      43.29706348       1.45730705
       5.70000000      10.72853323     360.00000000      43.29698811       1.45730452
       5.80000000      10.89807956     360.00000000      43.29691187       1.45730195
       5.90000000      11.12391512     360.00000000      43.29679626       1.45729806
       6.00000000      11.29347016     360.00000000      43.29671788       1.45729542
       6.10000000      11.46302899     360.00000000      43.29663868       1.45729276
       6.20000000      11.68888170     360.00000000      43.29651857       1.45728871
       6.30000000      11.85844967     360.00000000      43.29643733       1.45728598
       6.40000000      12.02802164     360.00000000      43.29635532       1.45728322
       6.50000000      12.25389234     360.00000000      43.29623092       1.45727903
       6.60000000      12.42347389     360.00000000      43.29614698       1.45727621
       6.70000000      12.59305962     360.00000000      43.29606233       1.45727336
       6.80000000      12.76264959     360.00000000      43.29597696       1.45727048
       6.90000000      12.98854492     360.00000000      43.29584738       1.45726612
       7.00000000      13.15814504     360.00000000      43.29576024       1.45726319
       7.10000000      13.32774959     360.00000000      43.29567245       1.45726023
       7.20000000      13.55366486     360.00000000      43.29553909       1.45725575
       7.30000000      13.72328001     360.00000000      43.29544964       1.45725273
       7.40000000      13.89289977     360.00000000      43.29535959       1.45724970
       7.50000000      14.11883583     360.00000000      43.29522270       1.45724510
       7.60000000      14.28846663     360.00000000      43.29513112       1.45724201
       7.70000000      14.45810223     360.00000000      43.29503899       1.45723891
       7.80000000      14.68405992     360.00000000      43.29489881       1.45723419
       7.90000000      14.85370700     360.00000000      43.29480529       1.45723105
       8.00000000      15.02335906     360.00000000      43.29471127       1.45722788
       8.10000000      15.19301616     360.00000000      43.29461677       1.45722470
       8.20000000      15.41900322     360.00000000      43.29447278       1.45721985
       8.30000000      15.58867237     360.00000000      43.29437707       1.45721663
       8.40000000      15.75834675     360.00000000      43.29428094       1.45721340
       8.50000000      15.98435738     360.00000000      43.29413427       1.45720846
       8.60000000      16.15404425     360.00000000      43.29403706       1.45720519
       8.70000000      16.32373654     360.00000000      43.29393949       1.45720191
       8.80000000      16.49343429     360.00000000      43.29384159       1.45719861
       8.90000000      16.71947680     360.00000000      43.29369191       1.45719357
       9.00000000      16.88918761     360.00000000      43.29359312       1.45719025
       9.10000000      17.05890408     360.00000000      43.29349406       1.45718691
       9.20000000      17.28497210     360.00000000      43.29334234       1.45718181
       9.30000000      17.45470206     360.00000000      43.29324253       1.45717845
       9.40000000      17.62443787     360.00000000      43.29314252       1.45717508
       9.50000000      17.79417957     360.00000000      43.29304231       1.45717171
       9.60000000      18.02028198     360.00000000      43.29288846       1.45716653
       9.70000000      18.19003774     360.00000000      43.29278771       1.45716314
       9.80000000      18.35979959     360.00000000      43.29268685       1.45715974
       9.90000000      18.52956757     360.00000000      43.29258588       1.45715634
      10.00000000      18.75570578     360.00000000      43.29243039       1.45715111
      10.10000000      18.92548840     360.00000000      43.29232908       1.45714770
      10.20000000      19.09527733     360.00000000      43.29222775       1.45714429
      10.30000000      19.26507265     360.00000000      43.29212640       1.45714088
      10.40000000      19.49124807     360.00000000      43.29196980       1.45713561
      10.50000000      19.66105858     360.00000000      43.29186834       1.45713219
      10.60000000      19.83087565     360.00000000      43.29176692       1.45712878
      10.70000000      20.05708069     360.00000000      43.29160980       1.45712349
      10.80000000      20.22691339     360.00000000      43.29150843       1.45712008
      10.90000000      20.39675283     360.00000000      43.29140720       1.45711667
      11.00000000      20.56659908     360.00000000      43.29130611       1.45711327
      11.10000000      20.79284383     360.00000000      43.29114885       1.45710798
      11.20000000      20.96270627     360.00000000      43.29104803       1.45710458
      11.30000000      21.13257569     360.00000000      43.29094745       1.45710120
      11.40000000      21.30245216     360.00000000      43.29084710       1.45709782
      11.50000000      21.47233573     360.00000000      43.29074703       1.45709445
      11.60000000      21.69863125     360.00000000      43.29059042       1.45708918
      11.70000000      21.86853169     360.00000000      43.29049090       1.45708583
      11.80000000      22.03843942     360.00000000      43.29039173       1.45708249
      11.90000000      22.20835448     360.00000000      43.29029292       1.45707917
      12.00000000      22.43469284     360.00000000      43.29013745       1.45707393
      12.10000000      22.60462535     360.00000000      43.29003943       1.45707064
      12.20000000      22.77456537     360.00000000      43.28994185       1.45706735
      12.30000000      22.94451297     360.00000000      43.28984474       1.45706408
      12.40000000      23.17089557     360.00000000      43.28969101       1.45705891
      12.50000000      23.34086117     360.00000000      43.28959492       1.45705567
      12.60000000      23.51083453     360.00000000      43.28949938       1.45705246
      12.70000000      23.68081570     360.00000000      43.28940442       1.45704926
      12.80000000      23.85080474     360.00000000      43.28931004       1.45704609
      12.90000000      24.07724367     360.00000000      43.28915932       1.45704101
      13.00000000      24.24725140     360.00000000      43.28906627       1.45703788
      13.10000000      24.41726718     360.00000000      43.28897389       1.45703477
      13.20000000      24.58729106     360.00000000      43.28888221       1.45703169
      13.30000000      24.81377735     360.00000000      43.28873458       1.45702672
      13.40000000      24.98382048     360.00000000      43.28864447       1.45702368
      13.50000000      25.15387190     360.00000000      43.28855514       1.45702068
      13.60000000      25.32393166     360.00000000      43.28846662       1.45701770
      13.70000000      25.49399981     360.00000000      43.28837892       1.45701475
      13.80000000      25.72054627     360.00000000      43.28823600       1.45700994
      13.90000000      25.89063436     360.00000000      43.28815018       1.45700705
      14.00000000      26.06073102     360.00000000      43.28806528       1.45700419
      14.10000000      26.23083632     360.00000000      43.28798131       1.45700136
      14.20000000      26.40095031     360.00000000      43.28789829       1.45699857
      14.30000000      26.62755904     360.00000000      43.28776105       1.45699395
      14.40000000      26.79769364     360.00000000      43.28768023       1.45699123
      14.50000000      26.96783712     360.00000000      43.28760045       1.45698854
      14.60000000      27.13798951     360.00000000      43.28752175       1.45698589
      14.70000000      27.30815089     360.00000000      43.28744414       1.45698328
      14.80000000      27.47832130     360.00000000      43.28736765       1.45698071
      14.90000000      27.70500668     360.00000000      43.28723843       1.45697636
      15.00000000      27.87519852     360.00000000      43.28716451       1.45697387
      15.10000000      28.04539957     360.00000000      43.28709179       1.45697142
      15.20000000      28.21560989     360.00000000      43.28702031       1.45696902
      15.30000000      28.38582954     360.00000000      43.28695007       1.45696665
      15.40000000      28.61258180     360.00000000      43.28682867       1.45696257
      15.50000000      28.78282356     360.00000000      43.28676133       1.45696030
      15.60000000      28.95307482     360.00000000      43.28669532       1.45695808
      15.70000000      29.12333564     360.00000000      43.28663068       1.45695590
      15.80000000      29.29360608     360.00000000      43.28656743       1.45695377
      15.90000000      29.46388619     360.00000000      43.28650560       1.45695169
      16.00000000      29.69072057     360.00000000      43.28639481       1.45694796
      16.10000000      29.86102360     360.00000000      43.28633625       1.45694599
      16.20000000      30.03133648     360.00000000      43.28627919       1.45694407
      16.30000000      30.20165926     360.00000000      43.28622366       1.45694220
      16.40000000      30.37199201     360.00000000      43.28616968       1.45694039
      16.50000000      30.54233476     360.00000000      43.28611729       1.45693862
      16.60000000      30.71268759     360.00000000      43.28606649       1.45693691
      16.70000000      30.93962073     360.00000000      43.28596977       1.45693366
      16.80000000      31.10999742     360.00000000      43.28592269       1.45693207
      16.90000000      31.28038436     360.00000000      43.28587731       1.45693055
      17.00000000      31.45078161     360.00000000      43.28583364       1.45692908
      17.10000000      31.62118921     360.00000000      43.28579172       1.45692766
      17.20000000      31.79160722     360.00000000      43.28575156       1.45692631
      17.30000000      31.96203571     360.00000000      43.28571319       1.45692502
      17.40000000      32.13247471     360.00000000      43.28567665       1.45692379
      17.50000000      32.35952488     360.00000000      43.28559823       1.45692115
      17.60000000      32.52998883     360.00000000      43.28556591       1.45692006
      17.70000000      32.70046347     360.00000000      43.28553549       1.45691904
      17.80000000      32.87094888     360.00000000      43.28550700       1.45691808
      17.90000000      33.04144510     360.00000000      43.28548047       1.45691719
      18.00000000      33.21195219     360.00000000      43.28545592       1.45691636
      18.10000000      33.38247020     360.00000000      43.28543338       1.45691560
      18.20000000      33.55299919     360.00000000      43.28541287       1.45691491
      18.30000000      33.78017156     360.00000000      43.28535519       1.45691297
      18.40000000      33.95072656     360.00000000      43.28533941       1.45691244
      18.50000000      34.12129272     360.00000000      43.28532575       1.45691198
      18.60000000      34.29187010     360.00000000      43.28531422       1.45691159
      18.70000000      34.46245875     360.00000000      43.28530487       1.45691128
      18.80000000      34.63305873     360.00000000      43.28529771       1.45691104
      18.90000000      34.80367009     360.00000000      43.28529276       1.45691087
      19.00000000      34.97429288     360.00000000      43.28529006       1.45691078
      19.10000000      35.14492717     360.00000000      43.28528962       1.45691077
      19.20000000      35.31557300     360.00000000      43.28529148       1.45691083
      19.30000000      35.48623043     360.00000000      43.28529566       1.45691097
      19.40000000      35.71357724     360.00000000      43.28527014       1.45691011
      19.50000000      35.88426216     360.00000000      43.28527971       1.45691043
      19.60000000      36.05495887     360.00000000      43.28529170       1.45691083
      19.70000000      36.22566742     360.00000000      43.28530610       1.45691132
      19.80000000      36.39638787     360.00000000      43.28532296       1.45691189
      19.90000000      36.56712027     360.00000000      43.28534229       1.45691254
      20.00000000      36.73786468     360.00000000      43.28536412       1.45691327
      20.10000000      36.90862116     360.00000000      43.28538847       1.45691409
      20.20000000      37.07938976     360.00000000      43.28541537       1.45691500
      20.30000000      37.25017054     360.00000000      43.28544484       1.45691599
      20.40000000      37.42096355     360.00000000      43.28547691       1.45691707
      20.50000000      37.59176885     360.00000000      43.28551160       1.45691824
      20.60000000      37.76258649     360.00000000      43.28554893       1.45691949
      20.70000000      37.93341653     360.00000000      43.28558893       1.45692084
      20.80000000      38.10425904     360.00000000      43.28563162       1.45692228
      20.90000000      38.27511406     360.00000000      43.28567702       1.45692380
      21.00000000      38.44598164     360.00000000      43.28572517       1.45692542
      21.10000000      38.61686186     360.00000000      43.28577607       1.45692714
      21.20000000      38.84451126     360.00000000      43.28581186       1.45692834
      21.30000000      39.01542139     360.00000000      43.28586921       1.45693027
      21.40000000      39.18634434     360.00000000      43.28592941       1.45693230
      21.50000000      39.35728017     360.00000000      43.28599247       1.45693442
      21.60000000      39.52822893     360.00000000      43.28605841       1.45693664
      21.70000000      39.69919068     360.00000000      43.28612727       1.45693896
      21.80000000      39.87016547     360.00000000      43.28619905       1.45694137
      21.90000000      40.04115338     360.00000000      43.28627379       1.45694389
      22.00000000      40.21215444     360.00000000      43.28635150       1.45694651
      22.10000000      40.38316873     360.00000000      43.28643222       1.45694922
      22.20000000      40.55419630     360.00000000      43.28651595       1.45695204
      22.30000000      40.72523720     360.00000000      43.28660272       1.45695496
      22.40000000      40.89629150     360.00000000      43.28669256       1.45695799
      22.50000000      41.06735925     360.00000000      43.28678548       1.45696111
      22.60000000      41.23844052     360.00000000      43.28688151       1.45696435
      22.70000000      41.40953536     360.00000000      43.28698067       1.45696768
      22.80000000      41.58064382     360.00000000      43.28708298       1.45697113
      22.90000000      41.75176598     360.00000000      43.28718846       1.45697468
      23.00000000      41.92290188     360.00000000      43.28729713       1.45697833
      23.10000000      42.09405160     360.00000000      43.28740901       1.45698210
      23.20000000      42.26521517     360.00000000      43.28752413       1.45698597
      23.30000000      42.43639268     360.00000000      43.28764250       1.45698996
      23.40000000      42.60758418     360.00000000      43.28776415       1.45699405
      23.50000000      42.77878972     360.00000000      43.28788908       1.45699826
      23.60000000      42.95000936     360.00000000      43.28801734       1.45700258
      23.70000000      43.12124318     360.00000000      43.28814892       1.45700700
      23.80000000      43.29249122     360.00000000      43.28828386       1.45701155
      23.90000000      43.40686844     360.00000000      43.28841392       1.45701592
      24.00000000      43.57814005     360.00000000      43.28855454       1.45702066
      24.10000000      43.74942606     360.00000000      43.28869857       1.45702550
      24.20000000      43.92072652     360.00000000      43.28884602       1.45703047
      24.30000000      44.09204149     360.00000000      43.28899691       1.45703555
      24.40000000      44.26337103     360.00000000      43.28915127       1.45704074
      24.50000000      44.43471521     360.00000000      43.28930910       1.45704605
      24.60000000      44.60607409     360.00000000      43.28947043       1.45705148
      24.70000000      44.77744773     360.00000000      43.28963527       1.45705703
      24.80000000      44.94883619     360.00000000      43.28980365       1.45706270
      24.90000000      45.12023954     360.00000000      43.28997557       1.45706849
      25.00000000      45.29165783     360.00000000      43.29015107       1.45707439
      25.10000000      45.46309115     360.00000000      43.29033015       1.45708042
      25.20000000      45.63453953     360.00000000      43.29051283       1.45708657
      25.30000000      45.80600306     360.00000000      43.29069913       1.45709284
      25.40000000      45.97748179     360.00000000      43.29088906       1.45709923
      25.50000000      46.14897579     360.00000000      43.29108265       1.45710575
      25.60000000      46.26351269     360.00000000      43.29125265       1.45711147
      25.70000000      46.43503198     360.00000000      43.29145239       1.45711819
      25.80000000      46.60656670     360.00000000      43.29165582       1.45712504
      25.90000000      46.77811693     360.00000000      43.29186296       1.45713201
      26.00000000      46.94968273     360.00000000      43.29207382       1.45713911
      26.10000000      47.12126417     360.00000000      43.29228842       1.45714633
      26.20000000      47.29286131     360.00000000      43.29250677       1.45715368
      26.30000000      47.46447422     360.00000000      43.29272889       1.45716116
      26.40000000      47.63610296     360.00000000      43.29295479       1.45716876
      26.50000000      47.80774761     360.00000000      43.29318449       1.45717649
      26.60000000      47.97940823     360.00000000      43.29341799       1.45718435
      26.70000000      48.09405319     360.00000000      43.29361495       1.45719098
      26.80000000      48.26574024     360.00000000      43.29385485       1.45719906
      26.90000000      48.43744345     360.00000000      43.29409859       1.45720726
      27.00000000      48.60916287     360.00000000      43.29434619       1.45721559
      27.10000000      48.78089858     360.00000000      43.29459765       1.45722406
      27.20000000      48.95265064     360.00000000      43.29485300       1.45723265
      27.30000000      49.12441913     360.00000000      43.29511223       1.45724138
      27.40000000      49.29620412     360.00000000      43.29537537       1.45725023
      27.50000000      49.46800567     360.00000000      43.29564243       1.45725922
      27.60000000      49.58274195     360.00000000      43.29586190       1.45726661
      27.70000000      49.75457091     360.00000000      43.29613551       1.45727582
      27.80000000      49.92641662     360.00000000      43.29641305       1.45728516
      27.90000000      50.09827916     360.00000000      43.29669455       1.45729464
      28.00000000      50.27015858     360.00000000      43.29698001       1.45730424
      28.10000000      50.44205498     360.00000000      43.29726943       1.45731399
      28.20000000      50.61396841     360.00000000      43.29756284       1.45732386
      28.30000000      50.72877713     360.00000000      43.29779992       1.45733184
      28.40000000      50.90071875     360.00000000      43.29809998       1.45734194
      28.50000000      51.07267760     360.00000000      43.29840403       1.45735217
      28.60000000      51.24465375     360.00000000      43.29871209       1.45736254
      28.70000000      51.41664728     360.00000000      43.29902417       1.45737305
      28.80000000      51.58865826     360.00000000      43.29934027       1.45738369
      28.90000000      51.70353012     360.00000000      43.29959245       1.45739217
      29.00000000      51.87556996     360.00000000      43.29991526       1.45740304
      29.10000000      52.04762745     360.00000000      43.30024210       1.45741404
      29.20000000      52.21970267     360.00000000      43.30057298       1.45742518
      29.30000000      52.39179568     360.00000000      43.30090792       1.45743645
      29.40000000      52.56390657     360.00000000      43.30124690       1.45744786
      29.50000000      52.67884306     360.00000000      43.30151427       1.45745686
      29.60000000      52.85098351     360.00000000      43.30186001       1.45746850
      29.70000000      53.02314203     360.00000000      43.30220980       1.45748027
      29.80000000      53.19531871     360.00000000      43.30256366       1.45749218
      29.90000000      53.36751363     360.00000000      43.30292159       1.45750423
      30.00000000      53.53972685     360.00000000      43.30328358       1.45751641
      30.10000000      53.65472950     360.00000000      43.30356617       1.45752592
      30.20000000      53.82697300     360.00000000      43.30393493       1.45753834
      30.30000000      53.99923501     360.00000000      43.30430776       1.45755088
      30.40000000      54.17151562     360.00000000      43.30468467       1.45756357
      30.50000000      54.34381491     360.00000000      43.30506566       1.45757639
      30.60000000      54.45887318     360.00000000      43.30536075       1.45758633
      30.70000000      54.63120334     360.00000000      43.30574849       1.45759938
      30.80000000      54.80355238     360.00000000      43.30614030       1.45761256
      30.90000000      54.97592040     360.00000000      43.30653618       1.45762589
      31.00000000      55.14830746     360.00000000      43.30693613       1.45763935
      31.10000000      55.26342242     360.00000000      43.30724369       1.45764970
      31.20000000      55.43584097     360.00000000      43.30765037       1.45766339
      31.30000000      55.60827878     360.00000000      43.30806111       1.45767722
      31.40000000      55.78073594     360.00000000      43.30847590       1.45769118
      31.50000000      55.95321252     360.00000000      43.30889475       1.45770527
      31.60000000      56.06838528     360.00000000      43.30921468       1.45771604
      31.70000000      56.24089397     360.00000000      43.30964021       1.45773037
      31.80000000      56.41342231     360.00000000      43.31006978       1.45774482
      31.90000000      56.58597037     360.00000000      43.31050338       1.45775942
      32.00000000      56.75853825     360.00000000      43.31094099       1.45777415
      32.10000000      56.87376992     360.00000000      43.31127318       1.45778533
      32.20000000      57.04637053     360.00000000      43.31171742       1.45780028
      32.30000000      57.21899117     360.00000000      43.31216565       1.45781537
      32.40000000      57.39163194     360.00000000      43.31261788       1.45783059
      32.50000000      57.50691062     360.00000000      43.31295957       1.45784209
      32.60000000      57.67958461     360.00000000      43.31341836       1.45785753
      32.70000000      57.85227895     360.00000000      43.31388110       1.45787311
      32.80000000      58.02499372     360.00000000      43.31434778       1.45788881
      32.90000000      58.19772899     360.00000000      43.31481840       1.45790465
      33.00000000      58.31306860     360.00000000      43.31517203       1.45791656
      33.10000000      58.48583776     360.00000000      43.31564910       1.45793261
      33.20000000      58.65862764     360.00000000      43.31613006       1.45794880
      33.30000000      58.83143835     360.00000000      43.31661491       1.45796512
      33.40000000      58.94682656     360.00000000      43.31697774       1.45797733
      33.50000000      59.11967165     360.00000000      43.31746894       1.45799387
      33.60000000      59.29253779     360.00000000      43.31796397       1.45801053
      33.70000000      59.46542506     360.00000000      43.31846282       1.45802732
      33.80000000      59.58086258     360.00000000      43.31883467       1.45803984
      33.90000000      59.75378473     360.00000000      43.31933975       1.45805684
      34.00000000      59.92672824     360.00000000      43.31984860       1.45807396
      34.10000000      60.09969320     360.00000000      43.32036119       1.45809122
      34.20000000      60.21518072     360.00000000      43.32074187       1.45810403
      34.30000000      60.38818107     360.00000000      43.32126056       1.45812149
      34.40000000      60.56120308     360.00000000      43.32178293       1.45813907
      34.50000000      60.73424685     360.00000000      43.32230896       1.45815677
      34.60000000      60.90731246     360.00000000      43.32283863       1.45817460
      34.70000000      61.02286474     360.00000000      43.32323022       1.45818778
      34.80000000      61.19596638     360.00000000      43.32376579       1.45820581
      34.90000000      61.36909008     360.00000000      43.32430491       1.45822395
      35.00000000      61.54223592     360.00000000      43.32484757       1.45824222
      35.10000000      61.65783979     360.00000000      43.32524744       1.45825568
      35.20000000      61.83102216     360.00000000      43.32579583       1.45827414
      35.30000000      62.00422689     360.00000000      43.32634766       1.45829271
      35.40000000      62.17745408     360.00000000      43.32690292       1.45831140
      35.50000000      62.29311020     360.00000000      43.32731077       1.45832513
      35.60000000      62.46637439     360.00000000      43.32787156       1.45834400
      35.70000000      62.63966125     360.00000000      43.32843567       1.45836299
      35.80000000      62.81297086     360.00000000      43.32900309       1.45838209
      35.90000000      62.92867990     360.00000000      43.32941859       1.45839607
      36.00000000      63.10202699     360.00000000      43.32999131       1.45841535
      36.10000000      63.27539704     360.00000000      43.33056723       1.45843473
      36.20000000      63.44879013     360.00000000      43.33114630       1.45845422
      36.30000000      63.62220633     360.00000000      43.33172849       1.45847382
      36.40000000      63.73798376     360.00000000      43.33215324       1.45848812
      36.50000000      63.91143803     360.00000000      43.33274043       1.45850788
      36.60000000      64.08491562     360.00000000      43.33333061       1.45852774
      36.70000000      64.25841660     360.00000000      43.33392376       1.45854771
      36.80000000      64.37424838     360.00000000      43.33435532       1.45856223
      36.90000000      64.54778787     360.00000000      43.33495318       1.45858236
      37.00000000      64.72135094     360.00000000      43.33555388       1.45860258
      37.10000000      64.89493767     360.00000000      43.33615737       1.45862289
      37.20000000      65.06854812     360.00000000      43.33676360       1.45864329
      37.30000000      65.18445003     360.00000000      43.33720320       1.45865809
      37.40000000      65.35809952     360.00000000      43.33781376       1.45867864
      37.50000000      65.53177292     360.00000000      43.33842693       1.45869928
      37.60000000      65.70547029     360.00000000      43.33904264       1.45872000
      37.70000000      65.87919170     360.00000000      43.33966084       1.45874081
      37.80000000      65.99516459     360.00000000      43.34010771       1.45875585
      37.90000000      66.16892552     360.00000000      43.34072982       1.45877679
      38.00000000      66.34271065     360.00000000      43.34135427       1.45879781
      38.10000000      66.51652003     360.00000000      43.34198099       1.45881890
      38.20000000      66.69035374     360.00000000      43.34260994       1.45884007
      38.30000000      66.80639839     360.00000000      43.34306322       1.45885533
      38.40000000      66.98027203     360.00000000      43.34369560       1.45887661
      38.50000000      67.15417014     360.00000000      43.34433003       1.45889797
      38.60000000      67.32809276     360.00000000      43.34496644       1.45891939
      38.70000000      67.50203994     360.00000000      43.34560477       1.45894087
      38.80000000      67.67601173     360.00000000      43.34624496       1.45896242
      38.90000000      67.85000818     360.00000000      43.34688693       1.45898403
      39.00000000      67.96615664     360.00000000      43.34734775       1.45899954
      39.10000000      68.14019352     360.00000000      43.34799239       1.45902124
      39.20000000      68.31425517     360.00000000      43.34863862       1.45904299
      39.30000000      68.48834160     360.00000000      43.34928637       1.45906479
      39.40000000      68.66245287     360.00000000      43.34993556       1.45908664
      39.50000000      68.83658900     360.00000000      43.35058612       1.45910854
      39.60000000      69.01075003     360.00000000      43.35123796       1.45913048
      39.70000000      69.18493597     360.00000000      43.35189101       1.45915246
      39.80000000      69.30120504     360.00000000      43.35235781       1.45916817
      39.90000000      69.47543179     360.00000000      43.35301255       1.45919021
      40.00000000      69.64968350     360.00000000      43.35366828       1.45921228
