 # applied field (T), theta (degree), phi (degree), abs for RE 3-4
     0.00000   177.27601   135.00000     0.09707   177.27601    45.00000     0.09707
     0.10000   176.76109   167.55957     0.09696   178.65901    45.00000     0.09697
     0.20000   175.57013   186.87557     0.09689   179.95720   225.00000     0.09690
     0.30000   174.10221   197.32750     0.09685   178.57408   225.00000     0.09686
     0.40000   172.52287   203.48403     0.09684   177.19307   225.00000     0.09685
     0.50000   170.80168   207.63839     0.09687   175.73617   225.00000     0.09688
     0.60000   169.15156   210.33629     0.09694   174.36378   225.00000     0.09693
     0.70000   167.49468   212.31166     0.09703   172.99755   225.00000     0.09700
     0.80000   165.74519   213.89200     0.09716   171.56046   225.00000     0.09711
     0.90000   164.00292   215.11997     0.09731   170.13288   225.00000     0.09725
     1.00000   162.36458   216.05317     0.09749   168.79307   225.00000     0.09740
     1.10000   160.64718   216.86279     0.09769   167.38729   225.00000     0.09758
     1.20000   158.85547   217.56886     0.09793   165.91846   225.00000     0.09780
     1.30000   157.17387   218.13229     0.09818   164.53957   225.00000     0.09803
     1.40000   155.42331   218.63875     0.09845   163.10074   225.00000     0.09829
     1.50000   153.69581   219.07425     0.09874   161.67832   225.00000     0.09857
     1.60000   151.99226   219.45280     0.09904   160.27281   225.00000     0.09887
     1.70000   150.22842   219.80088     0.09935   158.81303   225.00000     0.09919
     1.80000   148.49221   220.10708     0.09967   157.37250   225.00000     0.09953
     1.90000   146.70179   220.39107     0.09999   155.88169   225.00000     0.09989
     2.00000   144.94215   220.64343     0.10031   154.41193   225.00000     0.10026
     2.10000   143.13405   220.87918     0.10062   152.89533   225.00000     0.10066
     2.20000   141.35940   221.09052     0.10091   151.40085   225.00000     0.10105
     2.30000   139.54173   221.28916     0.10119   149.86214   225.00000     0.10146
     2.40000   137.75983   221.46860     0.10142   148.34571   225.00000     0.10187
     2.50000   135.86720   221.64475     0.10164   146.72297   225.00000     0.10231
     2.60000   133.94442   221.81035     0.10180   145.06069   225.00000     0.10274
     2.70000   132.06566   221.96077     0.10190   143.42135   225.00000     0.10317
     2.80000   130.09478   222.10805     0.10194   141.68065   225.00000     0.10360
     2.90000   128.04226   222.25148     0.10190   139.84065   225.00000     0.10404
     3.00000   125.98352   222.38661     0.10175   137.96188   225.00000     0.10445
     3.10000   123.80104   222.52189     0.10148   135.92452   225.00000     0.10487
     3.20000   121.57460   222.65308     0.10107   133.78716   225.00000     0.10527
     3.30000   119.26226   222.78391     0.10050   131.48871   225.00000     0.10564
     3.40000   116.83410   222.91758     0.09973   128.96739   225.00000     0.10599
     3.50000   114.27414   223.05726     0.09873   126.15910   225.00000     0.10631
     3.60000   111.48698   223.21203     0.09746   122.87988   225.00000     0.10661
     3.70000   108.42342   223.39190     0.09589   118.93655   225.00000     0.10687
     3.80000   104.96229   223.61840     0.09402   113.94462   225.00000     0.10714
     3.90000   100.61253   223.95713     0.09197   106.71968   225.00000     0.10757
     4.00000    90.00000   225.00000     0.09286    86.40280   225.00000     0.11051
     4.10000    90.00000   225.00000     0.09275    86.39938   225.00000     0.11038
     4.20000    90.00000   225.00000     0.09263    86.39595   225.00000     0.11026
     4.30000    90.00000   225.00000     0.09252    86.39251   225.00000     0.11014
     4.40000    90.00000   225.00000     0.09240    86.38907   225.00000     0.11002
     4.50000    90.00000   225.00000     0.09229    86.38562   225.00000     0.10989
     4.60000    90.00000   225.00000     0.09217    86.38216   225.00000     0.10977
     4.70000    90.00000   225.00000     0.09206    86.37869   225.00000     0.10965
     4.80000    90.00000   225.00000     0.09194    86.37522   225.00000     0.10953
     4.90000    90.00000   225.00000     0.09183    86.37174   225.00000     0.10940
     5.00000    90.00000   225.00000     0.09171    86.36825   225.00000     0.10928
     5.10000    90.00000   225.00000     0.09160    86.36476   225.00000     0.10916
     5.20000    90.00000   225.00000     0.09148    86.36126   225.00000     0.10904
     5.30000    90.00000   225.00000     0.09137    86.35775   225.00000     0.10892
     5.40000    90.00000   225.00000     0.09125    86.35423   225.00000     0.10879
     5.50000    90.00000   225.00000     0.09114    86.35071   225.00000     0.10867
     5.60000    90.00000   225.00000     0.09102    86.34718   225.00000     0.10855
     5.70000    90.00000   225.00000     0.09091    86.34364   225.00000     0.10843
     5.80000    90.00000   225.00000     0.09079    86.34009   225.00000     0.10831
     5.90000    90.00000   225.00000     0.09068    86.33654   225.00000     0.10818
     6.00000    90.00000   225.00000     0.09056    86.33298   225.00000     0.10806
     6.10000    90.00000   225.00000     0.09045    86.32941   225.00000     0.10794
     6.20000    90.00000   225.00000     0.09033    86.32583   225.00000     0.10782
     6.30000    90.00000   225.00000     0.09022    86.32225   225.00000     0.10769
     6.40000    90.00000   225.00000     0.09010    86.31866   225.00000     0.10757
     6.50000    90.00000   225.00000     0.08999    86.31506   225.00000     0.10745
     6.60000    90.00000   225.00000     0.08987    86.31145   225.00000     0.10733
     6.70000    90.00000   225.00000     0.08976    86.30784   225.00000     0.10721
     6.80000    90.00000   225.00000     0.08964    86.30422   225.00000     0.10708
     6.90000    90.00000   225.00000     0.08953    86.30059   225.00000     0.10696
     7.00000    90.00000   225.00000     0.08941    86.29695   225.00000     0.10684
     7.10000    90.00000   225.00000     0.08930    86.29330   225.00000     0.10672
     7.20000    90.00000   225.00000     0.08918    86.28965   225.00000     0.10660
     7.30000    90.00000   225.00000     0.08907    86.28599   225.00000     0.10647
     7.40000    90.00000   225.00000     0.08895    86.28232   225.00000     0.10635
     7.50000    90.00000   225.00000     0.08884    86.27864   225.00000     0.10623
     7.60000    90.00000   225.00000     0.08872    86.27495   225.00000     0.10611
     7.70000    90.00000   225.00000     0.08861    86.27126   225.00000     0.10599
     7.80000    90.00000   225.00000     0.08850    86.26756   225.00000     0.10586
     7.90000    90.00000   225.00000     0.08838    86.26385   225.00000     0.10574
     8.00000    90.00000   225.00000     0.08827    86.26013   225.00000     0.10562
     8.10000    90.00000   225.00000     0.08815    86.25641   225.00000     0.10550
     8.20000    90.00000   225.00000     0.08804    86.25267   225.00000     0.10538
     8.30000    90.00000   225.00000     0.08792    86.24893   225.00000     0.10526
     8.40000    90.00000   225.00000     0.08781    86.24518   225.00000     0.10513
     8.50000    90.00000   225.00000     0.08769    86.24142   225.00000     0.10501
     8.60000    90.00000   225.00000     0.08758    86.23766   225.00000     0.10489
     8.70000    90.00000   225.00000     0.08746    86.23388   225.00000     0.10477
     8.80000    90.00000   225.00000     0.08735    86.23010   225.00000     0.10465
     8.90000    90.00000   225.00000     0.08723    86.22631   225.00000     0.10452
     9.00000    90.00000   225.00000     0.08712    86.22251   225.00000     0.10440
     9.10000    90.00000   225.00000     0.08700    86.21870   225.00000     0.10428
     9.20000    90.00000   225.00000     0.08689    86.21488   225.00000     0.10416
     9.30000    90.00000   225.00000     0.08677    86.21106   225.00000     0.10404
     9.40000    90.00000   225.00000     0.08666    86.20723   225.00000     0.10392
     9.50000    90.00000   225.00000     0.08654    86.20338   225.00000     0.10379
     9.60000    90.00000   225.00000     0.08643    86.19953   225.00000     0.10367
     9.70000    90.00000   225.00000     0.08631    86.19568   225.00000     0.10355
     9.80000    90.00000   225.00000     0.08620    86.19181   225.00000     0.10343
     9.90000    90.00000   225.00000     0.08608    86.18793   225.00000     0.10331
    10.00000    90.00000   225.00000     0.08597    86.18405   225.00000     0.10319
    10.10000    90.00000   225.00000     0.08585    86.18015   225.00000     0.10306
    10.20000    90.00000   225.00000     0.08574    86.17625   225.00000     0.10294
    10.30000    90.00000   225.00000     0.08562    86.17234   225.00000     0.10282
    10.40000    90.00000   225.00000     0.08551    86.16842   225.00000     0.10270
    10.50000    90.00000   225.00000     0.08539    86.16450   225.00000     0.10258
    10.60000    90.00000   225.00000     0.08528    86.16056   225.00000     0.10246
    10.70000    90.00000   225.00000     0.08516    86.15661   225.00000     0.10233
    10.80000    90.00000   225.00000     0.08505    86.15266   225.00000     0.10221
    10.90000    90.00000   225.00000     0.08494    86.14869   225.00000     0.10209
    11.00000    90.00000   225.00000     0.08482    86.14472   225.00000     0.10197
    11.10000    90.00000   225.00000     0.08471    86.14074   225.00000     0.10185
    11.20000    90.00000   225.00000     0.08459    86.13675   225.00000     0.10173
    11.30000    90.00000   225.00000     0.08448    86.13275   225.00000     0.10161
    11.40000    90.00000   225.00000     0.08436    86.12874   225.00000     0.10148
    11.50000    90.00000   225.00000     0.08425    86.12473   225.00000     0.10136
    11.60000    90.00000   225.00000     0.08413    86.12070   225.00000     0.10124
    11.70000    90.00000   225.00000     0.08402    86.11666   225.00000     0.10112
    11.80000    90.00000   225.00000     0.08390    86.11262   225.00000     0.10100
    11.90000    90.00000   225.00000     0.08379    86.10856   225.00000     0.10088
    12.00000    90.00000   225.00000     0.08367    86.10450   225.00000     0.10076
    12.10000    90.00000   225.00000     0.08356    86.10043   225.00000     0.10063
    12.20000    90.00000   225.00000     0.08344    86.09635   225.00000     0.10051
    12.30000    90.00000   225.00000     0.08333    86.09226   225.00000     0.10039
    12.40000    90.00000   225.00000     0.08322    86.08816   225.00000     0.10027
    12.50000    90.00000   225.00000     0.08310    86.08405   225.00000     0.10015
    12.60000    90.00000   225.00000     0.08299    86.07993   225.00000     0.10003
    12.70000    90.00000   225.00000     0.08287    86.07580   225.00000     0.09991
    12.80000    90.00000   225.00000     0.08276    86.07166   225.00000     0.09978
    12.90000    90.00000   225.00000     0.08264    86.06751   225.00000     0.09966
    13.00000    90.00000   225.00000     0.08253    86.06335   225.00000     0.09954
    13.10000    90.00000   225.00000     0.08241    86.05919   225.00000     0.09942
    13.20000    90.00000   225.00000     0.08230    86.05501   225.00000     0.09930
    13.30000    90.00000   225.00000     0.08218    86.05082   225.00000     0.09918
    13.40000    90.00000   225.00000     0.08207    86.04663   225.00000     0.09906
    13.50000    90.00000   225.00000     0.08196    86.04242   225.00000     0.09894
    13.60000    90.00000   225.00000     0.08184    86.03821   225.00000     0.09881
    13.70000    90.00000   225.00000     0.08173    86.03398   225.00000     0.09869
    13.80000    90.00000   225.00000     0.08161    86.02974   225.00000     0.09857
    13.90000    90.00000   225.00000     0.08150    86.02550   225.00000     0.09845
    14.00000    90.00000   225.00000     0.08138    86.02124   225.00000     0.09833
    14.10000    90.00000   225.00000     0.08127    86.01698   225.00000     0.09821
    14.20000    90.00000   225.00000     0.08115    86.01270   225.00000     0.09809
    14.30000    90.00000   225.00000     0.08104    86.00842   225.00000     0.09797
    14.40000    90.00000   225.00000     0.08093    86.00412   225.00000     0.09784
    14.50000    90.00000   225.00000     0.08081    85.99982   225.00000     0.09772
    14.60000    90.00000   225.00000     0.08070    85.99550   225.00000     0.09760
    14.70000    90.00000   225.00000     0.08058    85.99118   225.00000     0.09748
    14.80000    90.00000   225.00000     0.08047    85.98684   225.00000     0.09736
    14.90000    90.00000   225.00000     0.08035    85.98250   225.00000     0.09724
    15.00000    90.00000   225.00000     0.08024    85.97814   225.00000     0.09712
    15.10000    90.00000   225.00000     0.08012    85.97377   225.00000     0.09700
    15.20000    90.00000   225.00000     0.08001    85.96940   225.00000     0.09688
    15.30000    90.00000   225.00000     0.07990    85.96501   225.00000     0.09675
    15.40000    90.00000   225.00000     0.07978    85.96061   225.00000     0.09663
    15.50000    90.00000   225.00000     0.07967    85.95620   225.00000     0.09651
    15.60000    90.00000   225.00000     0.07955    85.95179   225.00000     0.09639
    15.70000    90.00000   225.00000     0.07944    85.94736   225.00000     0.09627
    15.80000    90.00000   225.00000     0.07932    85.94292   225.00000     0.09615
    15.90000    90.00000   225.00000     0.07921    85.93847   225.00000     0.09603
    16.00000    90.00000   225.00000     0.07910    85.93401   225.00000     0.09591
    16.10000    90.00000   225.00000     0.07898    85.92953   225.00000     0.09579
    16.20000    90.00000   225.00000     0.07887    85.92505   225.00000     0.09567
    16.30000    90.00000   225.00000     0.07875    85.92056   225.00000     0.09554
    16.40000    90.00000   225.00000     0.07864    85.91605   225.00000     0.09542
    16.50000    90.00000   225.00000     0.07852    85.91154   225.00000     0.09530
    16.60000    90.00000   225.00000     0.07841    85.90701   225.00000     0.09518
    16.70000    90.00000   225.00000     0.07829    85.90248   225.00000     0.09506
    16.80000    90.00000   225.00000     0.07818    85.89793   225.00000     0.09494
    16.90000    90.00000   225.00000     0.07807    85.89337   225.00000     0.09482
    17.00000    90.00000   225.00000     0.07795    85.88880   225.00000     0.09470
    17.10000    90.00000   225.00000     0.07784    85.88422   225.00000     0.09458
    17.20000    90.00000   225.00000     0.07772    85.87963   225.00000     0.09446
    17.30000    90.00000   225.00000     0.07761    85.87502   225.00000     0.09434
    17.40000    90.00000   225.00000     0.07749    85.87041   225.00000     0.09422
    17.50000    90.00000   225.00000     0.07738    85.86578   225.00000     0.09409
    17.60000    90.00000   225.00000     0.07727    85.86115   225.00000     0.09397
    17.70000    90.00000   225.00000     0.07715    85.85650   225.00000     0.09385
    17.80000    90.00000   225.00000     0.07704    85.85184   225.00000     0.09373
    17.90000    90.00000   225.00000     0.07692    85.84717   225.00000     0.09361
    18.00000    90.00000   225.00000     0.07681    85.84249   225.00000     0.09349
    18.10000    90.00000   225.00000     0.07670    85.83779   225.00000     0.09337
    18.20000    90.00000   225.00000     0.07658    85.83309   225.00000     0.09325
    18.30000    90.00000   225.00000     0.07647    85.82837   225.00000     0.09313
    18.40000    90.00000   225.00000     0.07635    85.82364   225.00000     0.09301
    18.50000    90.00000   225.00000     0.07624    85.81890   225.00000     0.09289
    18.60000    90.00000   225.00000     0.07612    85.81415   225.00000     0.09277
    18.70000    90.00000   225.00000     0.07601    85.80938   225.00000     0.09265
    18.80000    90.00000   225.00000     0.07590    85.80461   225.00000     0.09252
    18.90000    90.00000   225.00000     0.07578    85.79982   225.00000     0.09240
    19.00000    90.00000   225.00000     0.07567    85.79502   225.00000     0.09228
    19.10000    90.00000   225.00000     0.07555    85.79021   225.00000     0.09216
    19.20000    90.00000   225.00000     0.07544    85.78538   225.00000     0.09204
    19.30000    90.00000   225.00000     0.07533    85.78055   225.00000     0.09192
    19.40000    90.00000   225.00000     0.07521    85.77570   225.00000     0.09180
    19.50000    90.00000   225.00000     0.07510    85.77084   225.00000     0.09168
    19.60000    90.00000   225.00000     0.07498    85.76597   225.00000     0.09156
    19.70000    90.00000   225.00000     0.07487    85.76108   225.00000     0.09144
    19.80000    90.00000   225.00000     0.07476    85.75619   225.00000     0.09132
    19.90000    90.00000   225.00000     0.07464    85.75128   225.00000     0.09120
    20.00000    90.00000   225.00000     0.07453    85.74636   225.00000     0.09108
    20.10000    90.00000   225.00000     0.07441    85.74142   225.00000     0.09096
    20.20000    90.00000   225.00000     0.07430    85.73648   225.00000     0.09084
    20.30000    90.00000   225.00000     0.07419    85.73152   225.00000     0.09072
    20.40000    90.00000   225.00000     0.07407    85.72654   225.00000     0.09060
    20.50000    90.00000   225.00000     0.07396    85.72156   225.00000     0.09048
    20.60000    90.00000   225.00000     0.07384    85.71656   225.00000     0.09035
    20.70000    90.00000   225.00000     0.07373    85.71155   225.00000     0.09023
    20.80000    90.00000   225.00000     0.07362    85.70653   225.00000     0.09011
    20.90000    90.00000   225.00000     0.07350    85.70150   225.00000     0.08999
    21.00000    90.00000   225.00000     0.07339    85.69645   225.00000     0.08987
    21.10000    90.00000   225.00000     0.07327    85.69139   225.00000     0.08975
    21.20000    90.00000   225.00000     0.07316    85.68631   225.00000     0.08963
    21.30000    90.00000   225.00000     0.07305    85.68123   225.00000     0.08951
    21.40000    90.00000   225.00000     0.07293    85.67613   225.00000     0.08939
    21.50000    90.00000   225.00000     0.07282    85.67102   225.00000     0.08927
    21.60000    90.00000   225.00000     0.07270    85.66589   225.00000     0.08915
    21.70000    90.00000   225.00000     0.07259    85.66075   225.00000     0.08903
    21.80000    90.00000   225.00000     0.07248    85.65560   225.00000     0.08891
    21.90000    90.00000   225.00000     0.07236    85.65043   225.00000     0.08879
    22.00000    90.00000   225.00000     0.07225    85.64525   225.00000     0.08867
    22.10000    90.00000   225.00000     0.07213    85.64006   225.00000     0.08855
    22.20000    90.00000   225.00000     0.07202    85.63485   225.00000     0.08843
    22.30000    90.00000   225.00000     0.07191    85.62963   225.00000     0.08831
    22.40000    90.00000   225.00000     0.07179    85.62440   225.00000     0.08819
    22.50000    90.00000   225.00000     0.07168    85.61915   225.00000     0.08807
    22.60000    90.00000   225.00000     0.07157    85.61389   225.00000     0.08795
    22.70000    90.00000   225.00000     0.07145    85.60862   225.00000     0.08783
    22.80000    90.00000   225.00000     0.07134    85.60333   225.00000     0.08771
    22.90000    90.00000   225.00000     0.07122    85.59803   225.00000     0.08759
    23.00000    90.00000   225.00000     0.07111    85.59271   225.00000     0.08747
    23.10000    90.00000   225.00000     0.07100    85.58738   225.00000     0.08735
    23.20000    90.00000   225.00000     0.07088    85.58204   225.00000     0.08723
    23.30000    90.00000   225.00000     0.07077    85.57668   225.00000     0.08711
    23.40000    90.00000   225.00000     0.07066    85.57130   225.00000     0.08699
    23.50000    90.00000   225.00000     0.07054    85.56592   225.00000     0.08687
    23.60000    90.00000   225.00000     0.07043    85.56052   225.00000     0.08675
    23.70000    90.00000   225.00000     0.07031    85.55510   225.00000     0.08663
    23.80000    90.00000   225.00000     0.07020    85.54967   225.00000     0.08651
    23.90000    90.00000   225.00000     0.07009    85.54423   225.00000     0.08639
    24.00000    90.00000   225.00000     0.06997    85.53877   225.00000     0.08627
    24.10000    90.00000   225.00000     0.06986    85.53330   225.00000     0.08615
    24.20000    90.00000   225.00000     0.06975    85.52781   225.00000     0.08603
    24.30000    90.00000   225.00000     0.06963    85.52231   225.00000     0.08591
    24.40000    90.00000   225.00000     0.06952    85.51679   225.00000     0.08579
    24.50000    90.00000   225.00000     0.06940    85.51126   225.00000     0.08567
    24.60000    90.00000   225.00000     0.06929    85.50571   225.00000     0.08555
    24.70000    90.00000   225.00000     0.06918    85.50015   225.00000     0.08543
    24.80000    90.00000   225.00000     0.06906    85.49457   225.00000     0.08531
    24.90000    90.00000   225.00000     0.06895    85.48898   225.00000     0.08519
    25.00000    90.00000   225.00000     0.06884    85.48337   225.00000     0.08507
    25.10000    90.00000   225.00000     0.06872    85.47775   225.00000     0.08495
    25.20000    90.00000   225.00000     0.06861    85.47211   225.00000     0.08483
    25.30000    90.00000   225.00000     0.06850    85.46646   225.00000     0.08471
    25.40000    90.00000   225.00000     0.06838    85.46079   225.00000     0.08459
    25.50000    90.00000   225.00000     0.06827    85.45511   225.00000     0.08447
    25.60000    90.00000   225.00000     0.06815    85.44941   225.00000     0.08435
    25.70000    90.00000   225.00000     0.06804    85.44370   225.00000     0.08423
    25.80000    90.00000   225.00000     0.06793    85.43797   225.00000     0.08411
    25.90000    90.00000   225.00000     0.06781    85.43222   225.00000     0.08399
    26.00000    90.00000   225.00000     0.06770    85.42646   225.00000     0.08387
    26.10000    90.00000   225.00000     0.06758    85.42069   225.00000     0.08375
    26.20000    90.00000   225.00000     0.06747    85.41489   225.00000     0.08363
    26.30000    90.00000   225.00000     0.06736    85.40908   225.00000     0.08351
    26.40000    90.00000   225.00000     0.06724    85.40326   225.00000     0.08339
    26.50000    90.00000   225.00000     0.06713    85.39742   225.00000     0.08327
    26.60000    90.00000   225.00000     0.06702    85.39156   225.00000     0.08315
    26.70000    90.00000   225.00000     0.06690    85.38569   225.00000     0.08303
    26.80000    90.00000   225.00000     0.06679    85.37980   225.00000     0.08291
    26.90000    90.00000   225.00000     0.06668    85.37389   225.00000     0.08279
    27.00000    90.00000   225.00000     0.06656    85.36797   225.00000     0.08267
    27.10000    90.00000   225.00000     0.06645    85.36203   225.00000     0.08255
    27.20000    90.00000   225.00000     0.06634    85.35608   225.00000     0.08243
    27.30000    90.00000   225.00000     0.06622    85.35010   225.00000     0.08231
    27.40000    90.00000   225.00000     0.06611    85.34412   225.00000     0.08219
    27.50000    90.00000   225.00000     0.06600    85.33811   225.00000     0.08207
    27.60000    90.00000   225.00000     0.06588    85.33209   225.00000     0.08195
    27.70000    90.00000   225.00000     0.06577    85.32605   225.00000     0.08183
    27.80000    90.00000   225.00000     0.06566    85.31999   225.00000     0.08171
    27.90000    90.00000   225.00000     0.06554    85.31392   225.00000     0.08159
    28.00000    90.00000   225.00000     0.06543    85.30783   225.00000     0.08147
    28.10000    90.00000   225.00000     0.06532    85.30172   225.00000     0.08135
    28.20000    90.00000   225.00000     0.06520    85.29560   225.00000     0.08123
    28.30000    90.00000   225.00000     0.06509    85.28946   225.00000     0.08111
    28.40000    90.00000   225.00000     0.06498    85.28330   225.00000     0.08099
    28.50000    90.00000   225.00000     0.06486    85.27712   225.00000     0.08087
    28.60000    90.00000   225.00000     0.06475    85.27093   225.00000     0.08075
    28.70000    90.00000   225.00000     0.06464    85.26471   225.00000     0.08063
    28.80000    90.00000   225.00000     0.06452    85.25848   225.00000     0.08051
    28.90000    90.00000   225.00000     0.06441    85.25224   225.00000     0.08039
    29.00000    90.00000   225.00000     0.06430    85.24597   225.00000     0.08028
    29.10000    90.00000   225.00000     0.06418    85.23969   225.00000     0.08016
    29.20000    90.00000   225.00000     0.06407    85.23339   225.00000     0.08004
    29.30000    90.00000   225.00000     0.06396    85.22707   225.00000     0.07992
    29.40000    90.00000   225.00000     0.06384    85.22073   225.00000     0.07980
    29.50000    90.00000   225.00000     0.06373    85.21437   225.00000     0.07968
    29.60000    90.00000   225.00000     0.06362    85.20800   225.00000     0.07956
    29.70000    90.00000   225.00000     0.06350    85.20160   225.00000     0.07944
    29.80000    90.00000   225.00000     0.06339    85.19519   225.00000     0.07932
    29.90000    90.00000   225.00000     0.06328    85.18876   225.00000     0.07920
    30.00000    90.00000   225.00000     0.06316    85.18232   225.00000     0.07908
    30.10000    90.00000   225.00000     0.06305    85.17585   225.00000     0.07896
    30.20000    90.00000   225.00000     0.06294    85.16936   225.00000     0.07884
    30.30000    90.00000   225.00000     0.06282    85.16286   225.00000     0.07872
    30.40000    90.00000   225.00000     0.06271    85.15633   225.00000     0.07860
    30.50000    90.00000   225.00000     0.06260    85.14979   225.00000     0.07848
    30.60000    90.00000   225.00000     0.06248    85.14323   225.00000     0.07836
    30.70000    90.00000   225.00000     0.06237    85.13665   225.00000     0.07824
    30.80000    90.00000   225.00000     0.06226    85.13004   225.00000     0.07813
    30.90000    90.00000   225.00000     0.06214    85.12342   225.00000     0.07801
    31.00000    90.00000   225.00000     0.06203    85.11678   225.00000     0.07789
    31.10000    90.00000   225.00000     0.06192    85.11013   225.00000     0.07777
    31.20000    90.00000   225.00000     0.06180    85.10345   225.00000     0.07765
    31.30000    90.00000   225.00000     0.06169    85.09675   225.00000     0.07753
    31.40000    90.00000   225.00000     0.06158    85.09003   225.00000     0.07741
    31.50000    90.00000   225.00000     0.06146    85.08329   225.00000     0.07729
    31.60000    90.00000   225.00000     0.06135    85.07653   225.00000     0.07717
    31.70000    90.00000   225.00000     0.06124    85.06975   225.00000     0.07705
    31.80000    90.00000   225.00000     0.06112    85.06295   225.00000     0.07693
    31.90000    90.00000   225.00000     0.06101    85.05613   225.00000     0.07681
    32.00000    90.00000   225.00000     0.06090    85.04929   225.00000     0.07669
    32.10000    90.00000   225.00000     0.06079    85.04243   225.00000     0.07658
    32.20000    90.00000   225.00000     0.06067    85.03555   225.00000     0.07646
    32.30000    90.00000   225.00000     0.06056    85.02865   225.00000     0.07634
    32.40000    90.00000   225.00000     0.06045    85.02173   225.00000     0.07622
    32.50000    90.00000   225.00000     0.06033    85.01478   225.00000     0.07610
    32.60000    90.00000   225.00000     0.06022    85.00782   225.00000     0.07598
    32.70000    90.00000   225.00000     0.06011    85.00083   225.00000     0.07586
    32.80000    90.00000   225.00000     0.05999    84.99383   225.00000     0.07574
    32.90000    90.00000   225.00000     0.05988    84.98680   225.00000     0.07562
    33.00000    90.00000   225.00000     0.05977    84.97975   225.00000     0.07550
    33.10000    90.00000   225.00000     0.05965    84.97268   225.00000     0.07538
    33.20000    90.00000   225.00000     0.05954    84.96559   225.00000     0.07526
    33.30000    90.00000   225.00000     0.05943    84.95847   225.00000     0.07515
    33.40000    90.00000   225.00000     0.05932    84.95134   225.00000     0.07503
    33.50000    90.00000   225.00000     0.05920    84.94418   225.00000     0.07491
    33.60000    90.00000   225.00000     0.05909    84.93700   225.00000     0.07479
    33.70000    90.00000   225.00000     0.05898    84.92980   225.00000     0.07467
    33.80000    90.00000   225.00000     0.05886    84.92257   225.00000     0.07455
    33.90000    90.00000   225.00000     0.05875    84.91533   225.00000     0.07443
    34.00000    90.00000   225.00000     0.05864    84.90806   225.00000     0.07431
    34.10000    90.00000   225.00000     0.05852    84.90077   225.00000     0.07419
    34.20000    90.00000   225.00000     0.05841    84.89346   225.00000     0.07407
    34.30000    90.00000   225.00000     0.05830    84.88612   225.00000     0.07396
    34.40000    90.00000   225.00000     0.05819    84.87876   225.00000     0.07384
    34.50000    90.00000   225.00000     0.05807    84.87138   225.00000     0.07372
    34.60000    90.00000   225.00000     0.05796    84.86397   225.00000     0.07360
    34.70000    90.00000   225.00000     0.05785    84.85655   225.00000     0.07348
    34.80000    90.00000   225.00000     0.05773    84.84909   225.00000     0.07336
    34.90000    90.00000   225.00000     0.05762    84.84162   225.00000     0.07324
    35.00000    90.00000   225.00000     0.05751    84.83412   225.00000     0.07312
    35.10000    90.00000   225.00000     0.05739    84.82660   225.00000     0.07300
    35.20000    90.00000   225.00000     0.05728    84.81905   225.00000     0.07289
    35.30000    90.00000   225.00000     0.05717    84.81148   225.00000     0.07277
    35.40000    90.00000   225.00000     0.05706    84.80389   225.00000     0.07265
    35.50000    90.00000   225.00000     0.05694    84.79627   225.00000     0.07253
    35.60000    90.00000   225.00000     0.05683    84.78863   225.00000     0.07241
    35.70000    90.00000   225.00000     0.05672    84.78097   225.00000     0.07229
    35.80000    90.00000   225.00000     0.05660    84.77328   225.00000     0.07217
    35.90000    90.00000   225.00000     0.05649    84.76556   225.00000     0.07205
    36.00000    90.00000   225.00000     0.05638    84.75782   225.00000     0.07194
    36.10000    90.00000   225.00000     0.05627    84.75006   225.00000     0.07182
    36.20000    90.00000   225.00000     0.05615    84.74227   225.00000     0.07170
    36.30000    90.00000   225.00000     0.05604    84.73446   225.00000     0.07158
    36.40000    90.00000   225.00000     0.05593    84.72662   225.00000     0.07146
    36.50000    90.00000   225.00000     0.05581    84.71875   225.00000     0.07134
    36.60000    90.00000   225.00000     0.05570    84.71087   225.00000     0.07122
    36.70000    90.00000   225.00000     0.05559    84.70295   225.00000     0.07110
    36.80000    90.00000   225.00000     0.05548    84.69501   225.00000     0.07099
    36.90000    90.00000   225.00000     0.05536    84.68704   225.00000     0.07087
    37.00000    90.00000   225.00000     0.05525    84.67905   225.00000     0.07075
    37.10000    90.00000   225.00000     0.05513    84.67103   225.00000     0.07063
    37.20000    90.00000   225.00000     0.05502    84.66299   225.00000     0.07051
    37.30000    90.00000   225.00000     0.05491    84.65492   225.00000     0.07039
    37.40000    90.00000   225.00000     0.05480    84.64682   225.00000     0.07027
    37.50000    90.00000   225.00000     0.05468    84.63870   225.00000     0.07015
    37.60000    90.00000   225.00000     0.05457    84.63055   225.00000     0.07004
    37.70000    90.00000   225.00000     0.05446    84.62238   225.00000     0.06992
    37.80000    90.00000   225.00000     0.05435    84.61417   225.00000     0.06980
    37.90000    90.00000   225.00000     0.05423    84.60594   225.00000     0.06968
    38.00000    90.00000   225.00000     0.05412    84.59768   225.00000     0.06956
    38.10000    90.00000   225.00000     0.05401    84.58940   225.00000     0.06944
    38.20000    90.00000   225.00000     0.05389    84.58109   225.00000     0.06932
    38.30000    90.00000   225.00000     0.05378    84.57275   225.00000     0.06921
    38.40000    90.00000   225.00000     0.05367    84.56438   225.00000     0.06909
    38.50000    90.00000   225.00000     0.05356    84.55599   225.00000     0.06897
    38.60000    90.00000   225.00000     0.05344    84.54756   225.00000     0.06885
    38.70000    90.00000   225.00000     0.05333    84.53911   225.00000     0.06873
    38.80000    90.00000   225.00000     0.05322    84.53063   225.00000     0.06861
    38.90000    90.00000   225.00000     0.05311    84.52212   225.00000     0.06850
    39.00000    90.00000   225.00000     0.05299    84.51359   225.00000     0.06838
    39.10000    90.00000   225.00000     0.05288    84.50502   225.00000     0.06826
    39.20000    90.00000   225.00000     0.05277    84.49643   225.00000     0.06814
    39.30000    90.00000   225.00000     0.05266    84.48781   225.00000     0.06802
    39.40000    90.00000   225.00000     0.05254    84.47915   225.00000     0.06790
    39.50000    90.00000   225.00000     0.05243    84.47047   225.00000     0.06779
    39.60000    90.00000   225.00000     0.05232    84.46176   225.00000     0.06767
    39.70000    90.00000   225.00000     0.05221    84.45302   225.00000     0.06755
    39.80000    90.00000   225.00000     0.05209    84.44425   225.00000     0.06743
    39.90000    90.00000   225.00000     0.05198    84.43545   225.00000     0.06731
    40.00000    90.00000   225.00000     0.05187    84.42662   225.00000     0.06719
