 # applied field (T), theta (degree), phi (degree), abs [muB/unitcell], abs [T]
       0.00000000       0.00000000       0.00000000      45.26332838       1.52348826
       0.10000000       0.34145064     360.00000000      45.26333061       1.52348833
       0.20000000       0.68290205     360.00000000      45.26333728       1.52348856
       0.30000000       1.08114545     360.00000000      45.26335022       1.52348899
       0.40000000       1.42260116     360.00000000      45.26336640       1.52348954
       0.50000000       1.76406007     360.00000000      45.26338705       1.52349023
       0.60000000       2.10552294     360.00000000      45.26341216       1.52349108
       0.70000000       2.50378379       0.00000000      45.26344603       1.52349222
       0.80000000       2.84525789       0.00000000      45.26348071       1.52349338
       0.90000000       3.18673838     360.00000000      45.26351990       1.52349470
       1.00000000       3.52822603       0.00000000      45.26356361       1.52349617
       1.10000000       3.92651988     360.00000000      45.26361862       1.52349802
       1.20000000       4.26802566     360.00000000      45.26367202       1.52349982
       1.30000000       4.60954101     360.00000000      45.26372999       1.52350177
       1.40000000       5.00787030       0.00000000      45.26380125       1.52350417
       1.50000000       5.34940902     360.00000000      45.26386905       1.52350645
       1.60000000       5.69095971     360.00000000      45.26394148       1.52350889
       1.70000000       6.08933334     360.00000000      45.26402924       1.52351185
       1.80000000       6.43091260     360.00000000      45.26411165       1.52351462
       1.90000000       6.77250622     360.00000000      45.26419878       1.52351755
       2.00000000       7.17093305     360.00000000      45.26430332       1.52352107
       2.10000000       7.51256039     360.00000000      45.26440061       1.52352434
       2.20000000       7.91102870     360.00000000      45.26451677       1.52352825
       2.30000000       8.25269328     360.00000000      45.26462435       1.52353188
       2.40000000       8.65120715     360.00000000      45.26475230       1.52353618
       2.50000000       8.99291246     360.00000000      45.26487031       1.52354015
       2.60000000       9.39147595     360.00000000      45.26501022       1.52354486
       2.70000000       9.73322545     360.00000000      45.26513881       1.52354919
       2.80000000      10.13184259     360.00000000      45.26529085       1.52355431
       2.90000000      10.53049031     360.00000000      45.26544942       1.52355965
       3.00000000      10.87231448     360.00000000      45.26559452       1.52356453
       3.10000000      11.27102197     360.00000000      45.26576549       1.52357028
       3.20000000      11.66976330     360.00000000      45.26594315       1.52357626
       3.30000000      12.01167014     360.00000000      45.26610511       1.52358172
       3.40000000      12.41047727     360.00000000      45.26629545       1.52358812
       3.50000000      12.80932145     360.00000000      45.26649262       1.52359476
       3.60000000      13.20820379     360.00000000      45.26669666       1.52360163
       3.70000000      13.60712539     360.00000000      45.26690763       1.52360873
       3.80000000      14.00608734     360.00000000      45.26712557       1.52361606
       3.90000000      14.40509072     360.00000000      45.26735052       1.52362363
       4.00000000      14.80413659     360.00000000      45.26758253       1.52363144
       4.10000000      15.26014223     360.00000000      45.26785104       1.52364048
       4.20000000      15.65928277     360.00000000      45.26809817       1.52364880
       4.30000000      16.05846908     360.00000000      45.26835248       1.52365736
       4.40000000      16.51463945     360.00000000      45.26864622       1.52366725
       4.50000000      16.91392732     360.00000000      45.26891587       1.52367632
       4.60000000      17.37021656     360.00000000      45.26922696       1.52368679
       4.70000000      17.76961051     360.00000000      45.26951204       1.52369639
       4.80000000      18.22602370     360.00000000      45.26984058       1.52370745
       4.90000000      18.68250507     360.00000000      45.27017838       1.52371882
       5.00000000      19.13905598     360.00000000      45.27052545       1.52373050
       5.10000000      19.59567777     360.00000000      45.27088180       1.52374249
       5.20000000      20.05237172     360.00000000      45.27124739       1.52375480
       5.30000000      20.50913910     360.00000000      45.27162220       1.52376741
       5.40000000      21.02300535     360.00000000      45.27204883       1.52378177
       5.50000000      21.47993288     360.00000000      45.27244302       1.52379504
       5.60000000      21.99398253     360.00000000      45.27289110       1.52381012
       5.70000000      22.50813162     360.00000000      45.27335035       1.52382558
       5.80000000      23.02238162     360.00000000      45.27382065       1.52384141
       5.90000000      23.53673396     360.00000000      45.27430185       1.52385760
       6.00000000      24.10828231     360.00000000      45.27484324       1.52387583
       6.10000000      24.67996068     360.00000000      45.27539745       1.52389448
       6.20000000      25.25177065     360.00000000      45.27596418       1.52391356
       6.30000000      25.82371362     360.00000000      45.27654310       1.52393304
       6.40000000      26.45293851     360.00000000      45.27718800       1.52395475
       6.50000000      27.08232781     360.00000000      45.27784651       1.52397691
       6.60000000      27.76906231     360.00000000      45.27857457       1.52400142
       6.70000000      28.45599576     360.00000000      45.27931715       1.52402641
       6.80000000      29.20034382     360.00000000      45.28013209       1.52405384
       6.90000000      90.00000000     360.00000000      45.30005046       1.52472426
       7.00000000      90.00000000     360.00000000      45.30009888       1.52472589
       7.10000000      90.00000000     360.00000000      45.30014730       1.52472752
       7.20000000      90.00000000     360.00000000      45.30019573       1.52472915
       7.30000000      90.00000000     360.00000000      45.30024417       1.52473078
       7.40000000      90.00000000     360.00000000      45.30029261       1.52473241
       7.50000000      90.00000000     360.00000000      45.30034105       1.52473404
       7.60000000      90.00000000     360.00000000      45.30038950       1.52473567
       7.70000000      90.00000000     360.00000000      45.30043796       1.52473730
       7.80000000      90.00000000     360.00000000      45.30048642       1.52473893
       7.90000000      90.00000000     360.00000000      45.30053488       1.52474056
       8.00000000      90.00000000     360.00000000      45.30058335       1.52474220
       8.10000000      90.00000000     360.00000000      45.30063183       1.52474383
       8.20000000      90.00000000     360.00000000      45.30068031       1.52474546
       8.30000000      90.00000000     360.00000000      45.30072879       1.52474709
       8.40000000      90.00000000     360.00000000      45.30077728       1.52474872
       8.50000000      90.00000000     360.00000000      45.30082578       1.52475036
       8.60000000      90.00000000     360.00000000      45.30087428       1.52475199
       8.70000000      90.00000000     360.00000000      45.30092278       1.52475362
       8.80000000      90.00000000     360.00000000      45.30097129       1.52475525
       8.90000000      90.00000000     360.00000000      45.30101981       1.52475689
       9.00000000      90.00000000     360.00000000      45.30106833       1.52475852
       9.10000000      90.00000000     360.00000000      45.30111686       1.52476015
       9.20000000      90.00000000     360.00000000      45.30116539       1.52476179
       9.30000000      90.00000000     360.00000000      45.30121392       1.52476342
       9.40000000      90.00000000     360.00000000      45.30126246       1.52476505
       9.50000000      90.00000000     360.00000000      45.30131101       1.52476669
       9.60000000      90.00000000     360.00000000      45.30135956       1.52476832
       9.70000000      90.00000000     360.00000000      45.30140812       1.52476996
       9.80000000      90.00000000     360.00000000      45.30145668       1.52477159
       9.90000000      90.00000000     360.00000000      45.30150524       1.52477323
      10.00000000      90.00000000     360.00000000      45.30155381       1.52477486
      10.10000000      90.00000000     360.00000000      45.30160239       1.52477649
      10.20000000      90.00000000     360.00000000      45.30165097       1.52477813
      10.30000000      90.00000000     360.00000000      45.30169956       1.52477977
      10.40000000      90.00000000     360.00000000      45.30174815       1.52478140
      10.50000000      90.00000000     360.00000000      45.30179674       1.52478304
      10.60000000      90.00000000     360.00000000      45.30184535       1.52478467
      10.70000000      90.00000000     360.00000000      45.30189395       1.52478631
      10.80000000      90.00000000     360.00000000      45.30194256       1.52478794
      10.90000000      90.00000000     360.00000000      45.30199118       1.52478958
      11.00000000      90.00000000     360.00000000      45.30203980       1.52479122
      11.10000000      90.00000000     360.00000000      45.30208843       1.52479285
      11.20000000      90.00000000     360.00000000      45.30213706       1.52479449
      11.30000000      90.00000000     360.00000000      45.30218570       1.52479613
      11.40000000      90.00000000     360.00000000      45.30223434       1.52479777
      11.50000000      90.00000000     360.00000000      45.30228299       1.52479940
      11.60000000      90.00000000     360.00000000      45.30233164       1.52480104
      11.70000000      90.00000000     360.00000000      45.30238030       1.52480268
      11.80000000      90.00000000     360.00000000      45.30242896       1.52480432
      11.90000000      90.00000000     360.00000000      45.30247763       1.52480595
      12.00000000      90.00000000     360.00000000      45.30252630       1.52480759
      12.10000000      90.00000000     360.00000000      45.30257498       1.52480923
      12.20000000      90.00000000     360.00000000      45.30262366       1.52481087
      12.30000000      90.00000000     360.00000000      45.30267235       1.52481251
      12.40000000      90.00000000     360.00000000      45.30272104       1.52481415
      12.50000000      90.00000000     360.00000000      45.30276974       1.52481579
      12.60000000      90.00000000     360.00000000      45.30281844       1.52481743
      12.70000000      90.00000000     360.00000000      45.30286715       1.52481906
      12.80000000      90.00000000     360.00000000      45.30291587       1.52482070
      12.90000000      90.00000000     360.00000000      45.30296458       1.52482234
      13.00000000      90.00000000     360.00000000      45.30301331       1.52482398
      13.10000000      90.00000000     360.00000000      45.30306204       1.52482562
      13.20000000      90.00000000     360.00000000      45.30311077       1.52482726
      13.30000000      90.00000000     360.00000000      45.30315951       1.52482891
      13.40000000      90.00000000     360.00000000      45.30320825       1.52483055
      13.50000000      90.00000000     360.00000000      45.30325700       1.52483219
      13.60000000      90.00000000     360.00000000      45.30330576       1.52483383
      13.70000000      90.00000000     360.00000000      45.30335452       1.52483547
      13.80000000      90.00000000     360.00000000      45.30340328       1.52483711
      13.90000000      90.00000000     360.00000000      45.30345205       1.52483875
      14.00000000      90.00000000     360.00000000      45.30350083       1.52484039
      14.10000000      90.00000000     360.00000000      45.30354961       1.52484204
      14.20000000      90.00000000     360.00000000      45.30359839       1.52484368
      14.30000000      90.00000000     360.00000000      45.30364718       1.52484532
      14.40000000      90.00000000     360.00000000      45.30369598       1.52484696
      14.50000000      90.00000000     360.00000000      45.30374478       1.52484860
      14.60000000      90.00000000     360.00000000      45.30379358       1.52485025
      14.70000000      90.00000000     360.00000000      45.30384239       1.52485189
      14.80000000      90.00000000     360.00000000      45.30389121       1.52485353
      14.90000000      90.00000000     360.00000000      45.30394003       1.52485518
      15.00000000      90.00000000     360.00000000      45.30398886       1.52485682
      15.10000000      90.00000000     360.00000000      45.30403769       1.52485846
      15.20000000      90.00000000     360.00000000      45.30408652       1.52486011
      15.30000000      90.00000000     360.00000000      45.30413537       1.52486175
      15.40000000      90.00000000     360.00000000      45.30418421       1.52486339
      15.50000000      90.00000000     360.00000000      45.30423307       1.52486504
      15.60000000      90.00000000     360.00000000      45.30428192       1.52486668
      15.70000000      90.00000000     360.00000000      45.30433078       1.52486833
      15.80000000      90.00000000     360.00000000      45.30437965       1.52486997
      15.90000000      90.00000000     360.00000000      45.30442852       1.52487162
      16.00000000      90.00000000     360.00000000      45.30447740       1.52487326
      16.10000000      90.00000000     360.00000000      45.30452629       1.52487491
      16.20000000      90.00000000     360.00000000      45.30457517       1.52487655
      16.30000000      90.00000000     360.00000000      45.30462407       1.52487820
      16.40000000      90.00000000     360.00000000      45.30467296       1.52487985
      16.50000000      90.00000000     360.00000000      45.30472187       1.52488149
      16.60000000      90.00000000     360.00000000      45.30477078       1.52488314
      16.70000000      90.00000000     360.00000000      45.30481969       1.52488478
      16.80000000      90.00000000     360.00000000      45.30486861       1.52488643
      16.90000000      90.00000000     360.00000000      45.30491753       1.52488808
      17.00000000      90.00000000     360.00000000      45.30496646       1.52488972
      17.10000000      90.00000000     360.00000000      45.30501540       1.52489137
      17.20000000      90.00000000     360.00000000      45.30506434       1.52489302
      17.30000000      90.00000000     360.00000000      45.30511328       1.52489467
      17.40000000      90.00000000     360.00000000      45.30516223       1.52489631
      17.50000000      90.00000000     360.00000000      45.30521119       1.52489796
      17.60000000      90.00000000     360.00000000      45.30526015       1.52489961
      17.70000000      90.00000000     360.00000000      45.30530911       1.52490126
      17.80000000      90.00000000     360.00000000      45.30535809       1.52490291
      17.90000000      90.00000000     360.00000000      45.30540706       1.52490455
      18.00000000      90.00000000     360.00000000      45.30545604       1.52490620
      18.10000000      90.00000000     360.00000000      45.30550503       1.52490785
      18.20000000      90.00000000     360.00000000      45.30555402       1.52490950
      18.30000000      90.00000000     360.00000000      45.30560302       1.52491115
      18.40000000      90.00000000     360.00000000      45.30565202       1.52491280
      18.50000000      90.00000000     360.00000000      45.30570103       1.52491445
      18.60000000      90.00000000     360.00000000      45.30575004       1.52491610
      18.70000000      90.00000000     360.00000000      45.30579906       1.52491775
      18.80000000      90.00000000     360.00000000      45.30584808       1.52491940
      18.90000000      90.00000000     360.00000000      45.30589711       1.52492105
      19.00000000      90.00000000     360.00000000      45.30594614       1.52492270
      19.10000000      90.00000000     360.00000000      45.30599518       1.52492435
      19.20000000      90.00000000     360.00000000      45.30604422       1.52492600
      19.30000000      90.00000000     360.00000000      45.30609327       1.52492765
      19.40000000      90.00000000     360.00000000      45.30614232       1.52492930
      19.50000000      90.00000000     360.00000000      45.30619138       1.52493095
      19.60000000      90.00000000     360.00000000      45.30624045       1.52493260
      19.70000000      90.00000000     360.00000000      45.30628952       1.52493426
      19.80000000      90.00000000     360.00000000      45.30633859       1.52493591
      19.90000000      90.00000000     360.00000000      45.30638767       1.52493756
      20.00000000      90.00000000     360.00000000      45.30643676       1.52493921
      20.10000000      90.00000000     360.00000000      45.30648585       1.52494086
      20.20000000      90.00000000     360.00000000      45.30653494       1.52494252
      20.30000000      90.00000000     360.00000000      45.30658405       1.52494417
      20.40000000      90.00000000     360.00000000      45.30663315       1.52494582
      20.50000000      90.00000000     360.00000000      45.30668226       1.52494748
      20.60000000      90.00000000     360.00000000      45.30673138       1.52494913
      20.70000000      90.00000000     360.00000000      45.30678050       1.52495078
      20.80000000      90.00000000     360.00000000      45.30682963       1.52495244
      20.90000000      90.00000000     360.00000000      45.30687876       1.52495409
      21.00000000      90.00000000     360.00000000      45.30692790       1.52495574
      21.10000000      90.00000000     360.00000000      45.30697704       1.52495740
      21.20000000      90.00000000     360.00000000      45.30702619       1.52495905
      21.30000000      90.00000000     360.00000000      45.30707534       1.52496071
      21.40000000      90.00000000     360.00000000      45.30712450       1.52496236
      21.50000000      90.00000000     360.00000000      45.30717367       1.52496401
      21.60000000      90.00000000     360.00000000      45.30722283       1.52496567
      21.70000000      90.00000000     360.00000000      45.30727201       1.52496732
      21.80000000      90.00000000     360.00000000      45.30732119       1.52496898
      21.90000000      90.00000000     360.00000000      45.30737037       1.52497064
      22.00000000      90.00000000     360.00000000      45.30741956       1.52497229
      22.10000000      90.00000000     360.00000000      45.30746876       1.52497395
      22.20000000      90.00000000     360.00000000      45.30751796       1.52497560
      22.30000000      90.00000000     360.00000000      45.30756717       1.52497726
      22.40000000      90.00000000     360.00000000      45.30761638       1.52497892
      22.50000000      90.00000000     360.00000000      45.30766559       1.52498057
      22.60000000      90.00000000     360.00000000      45.30771481       1.52498223
      22.70000000      90.00000000     360.00000000      45.30776404       1.52498389
      22.80000000      90.00000000     360.00000000      45.30781327       1.52498554
      22.90000000      90.00000000     360.00000000      45.30786251       1.52498720
      23.00000000      90.00000000     360.00000000      45.30791175       1.52498886
      23.10000000      90.00000000     360.00000000      45.30796100       1.52499052
      23.20000000      90.00000000     360.00000000      45.30801025       1.52499217
      23.30000000      90.00000000     360.00000000      45.30805951       1.52499383
      23.40000000      90.00000000     360.00000000      45.30810878       1.52499549
      23.50000000      90.00000000     360.00000000      45.30815805       1.52499715
      23.60000000      90.00000000     360.00000000      45.30820732       1.52499881
      23.70000000      90.00000000     360.00000000      45.30825660       1.52500046
      23.80000000      90.00000000     360.00000000      45.30830588       1.52500212
      23.90000000      90.00000000     360.00000000      45.30835517       1.52500378
      24.00000000      90.00000000     360.00000000      45.30840447       1.52500544
      24.10000000      90.00000000     360.00000000      45.30845377       1.52500710
      24.20000000      90.00000000     360.00000000      45.30850308       1.52500876
      24.30000000      90.00000000     360.00000000      45.30855239       1.52501042
      24.40000000      90.00000000     360.00000000      45.30860170       1.52501208
      24.50000000      90.00000000     360.00000000      45.30865103       1.52501374
      24.60000000      90.00000000     360.00000000      45.30870035       1.52501540
      24.70000000      90.00000000     360.00000000      45.30874969       1.52501706
      24.80000000      90.00000000     360.00000000      45.30879902       1.52501872
      24.90000000      90.00000000     360.00000000      45.30884837       1.52502038
      25.00000000      90.00000000     360.00000000      45.30889772       1.52502204
      25.10000000      90.00000000     360.00000000      45.30894707       1.52502370
      25.20000000      90.00000000     360.00000000      45.30899643       1.52502537
      25.30000000      90.00000000     360.00000000      45.30904579       1.52502703
      25.40000000      90.00000000     360.00000000      45.30909516       1.52502869
      25.50000000      90.00000000     360.00000000      45.30914454       1.52503035
      25.60000000      90.00000000     360.00000000      45.30919392       1.52503201
      25.70000000      90.00000000     360.00000000      45.30924330       1.52503368
      25.80000000      90.00000000     360.00000000      45.30929269       1.52503534
      25.90000000      90.00000000     360.00000000      45.30934209       1.52503700
      26.00000000      90.00000000     360.00000000      45.30939149       1.52503866
      26.10000000      90.00000000     360.00000000      45.30944090       1.52504033
      26.20000000      90.00000000     360.00000000      45.30949031       1.52504199
      26.30000000      90.00000000     360.00000000      45.30953973       1.52504365
      26.40000000      90.00000000     360.00000000      45.30958915       1.52504532
      26.50000000      90.00000000     360.00000000      45.30963858       1.52504698
      26.60000000      90.00000000     360.00000000      45.30968801       1.52504864
      26.70000000      90.00000000     360.00000000      45.30973745       1.52505031
      26.80000000      90.00000000     360.00000000      45.30978689       1.52505197
      26.90000000      90.00000000     360.00000000      45.30983634       1.52505364
      27.00000000      90.00000000     360.00000000      45.30988580       1.52505530
      27.10000000      90.00000000     360.00000000      45.30993526       1.52505697
      27.20000000      90.00000000     360.00000000      45.30998472       1.52505863
      27.30000000      90.00000000     360.00000000      45.31003419       1.52506030
      27.40000000      90.00000000     360.00000000      45.31008367       1.52506196
      27.50000000      90.00000000     360.00000000      45.31013315       1.52506363
      27.60000000      90.00000000     360.00000000      45.31018264       1.52506529
      27.70000000      90.00000000     360.00000000      45.31023213       1.52506696
      27.80000000      90.00000000     360.00000000      45.31028163       1.52506862
      27.90000000      90.00000000     360.00000000      45.31033113       1.52507029
      28.00000000      90.00000000     360.00000000      45.31038064       1.52507196
      28.10000000      90.00000000     360.00000000      45.31043015       1.52507362
      28.20000000      90.00000000     360.00000000      45.31047967       1.52507529
      28.30000000      90.00000000     360.00000000      45.31052919       1.52507696
      28.40000000      90.00000000     360.00000000      45.31057872       1.52507862
      28.50000000      90.00000000     360.00000000      45.31062826       1.52508029
      28.60000000      90.00000000     360.00000000      45.31067780       1.52508196
      28.70000000      90.00000000     360.00000000      45.31072734       1.52508363
      28.80000000      90.00000000     360.00000000      45.31077689       1.52508529
      28.90000000      90.00000000     360.00000000      45.31082645       1.52508696
      29.00000000      90.00000000     360.00000000      45.31087601       1.52508863
      29.10000000      90.00000000     360.00000000      45.31092558       1.52509030
      29.20000000      90.00000000     360.00000000      45.31097515       1.52509197
      29.30000000      90.00000000     360.00000000      45.31102473       1.52509364
      29.40000000      90.00000000     360.00000000      45.31107431       1.52509530
      29.50000000      90.00000000     360.00000000      45.31112390       1.52509697
      29.60000000      90.00000000     360.00000000      45.31117349       1.52509864
      29.70000000      90.00000000     360.00000000      45.31122309       1.52510031
      29.80000000      90.00000000     360.00000000      45.31127270       1.52510198
      29.90000000      90.00000000     360.00000000      45.31132231       1.52510365
      30.00000000      90.00000000     360.00000000      45.31137192       1.52510532
      30.10000000      90.00000000     360.00000000      45.31142154       1.52510699
      30.20000000      90.00000000     360.00000000      45.31147117       1.52510866
      30.30000000      90.00000000     360.00000000      45.31152080       1.52511033
      30.40000000      90.00000000     360.00000000      45.31157044       1.52511200
      30.50000000      90.00000000     360.00000000      45.31162008       1.52511367
      30.60000000      90.00000000     360.00000000      45.31166973       1.52511534
      30.70000000      90.00000000     360.00000000      45.31171938       1.52511702
      30.80000000      90.00000000     360.00000000      45.31176904       1.52511869
      30.90000000      90.00000000     360.00000000      45.31181870       1.52512036
      31.00000000      90.00000000     360.00000000      45.31186837       1.52512203
      31.10000000      90.00000000     360.00000000      45.31191805       1.52512370
      31.20000000      90.00000000     360.00000000      45.31196773       1.52512537
      31.30000000      90.00000000     360.00000000      45.31201741       1.52512705
      31.40000000      90.00000000     360.00000000      45.31206710       1.52512872
      31.50000000      90.00000000     360.00000000      45.31211680       1.52513039
      31.60000000      90.00000000     360.00000000      45.31216650       1.52513207
      31.70000000      90.00000000     360.00000000      45.31221621       1.52513374
      31.80000000      90.00000000     360.00000000      45.31226592       1.52513541
      31.90000000      90.00000000     360.00000000      45.31231564       1.52513709
      32.00000000      90.00000000     360.00000000      45.31236536       1.52513876
      32.10000000      90.00000000     360.00000000      45.31241509       1.52514043
      32.20000000      90.00000000     360.00000000      45.31246482       1.52514211
      32.30000000      90.00000000     360.00000000      45.31251456       1.52514378
      32.40000000      90.00000000     360.00000000      45.31256431       1.52514545
      32.50000000      90.00000000     360.00000000      45.31261406       1.52514713
      32.60000000      90.00000000     360.00000000      45.31266381       1.52514880
      32.70000000      90.00000000     360.00000000      45.31271357       1.52515048
      32.80000000      90.00000000     360.00000000      45.31276334       1.52515215
      32.90000000      90.00000000     360.00000000      45.31281311       1.52515383
      33.00000000      90.00000000     360.00000000      45.31286289       1.52515550
      33.10000000      90.00000000     360.00000000      45.31291267       1.52515718
      33.20000000      90.00000000     360.00000000      45.31296246       1.52515886
      33.30000000      90.00000000     360.00000000      45.31301225       1.52516053
      33.40000000      90.00000000     360.00000000      45.31306205       1.52516221
      33.50000000      90.00000000     360.00000000      45.31311186       1.52516388
      33.60000000      90.00000000     360.00000000      45.31316167       1.52516556
      33.70000000      90.00000000     360.00000000      45.31321148       1.52516724
      33.80000000      90.00000000     360.00000000      45.31326130       1.52516891
      33.90000000      90.00000000     360.00000000      45.31331113       1.52517059
      34.00000000      90.00000000     360.00000000      45.31336096       1.52517227
      34.10000000      90.00000000     360.00000000      45.31341080       1.52517395
      34.20000000      90.00000000     360.00000000      45.31346064       1.52517562
      34.30000000      90.00000000     360.00000000      45.31351049       1.52517730
      34.40000000      90.00000000     360.00000000      45.31356034       1.52517898
      34.50000000      90.00000000     360.00000000      45.31361020       1.52518066
      34.60000000      90.00000000     360.00000000      45.31366006       1.52518234
      34.70000000      90.00000000     360.00000000      45.31370993       1.52518401
      34.80000000      90.00000000     360.00000000      45.31375981       1.52518569
      34.90000000      90.00000000     360.00000000      45.31380969       1.52518737
      35.00000000      90.00000000     360.00000000      45.31385958       1.52518905
      35.10000000      90.00000000     360.00000000      45.31390947       1.52519073
      35.20000000      90.00000000     360.00000000      45.31395936       1.52519241
      35.30000000      90.00000000     360.00000000      45.31400927       1.52519409
      35.40000000      90.00000000     360.00000000      45.31405917       1.52519577
      35.50000000      90.00000000     360.00000000      45.31410909       1.52519745
      35.60000000      90.00000000     360.00000000      45.31415901       1.52519913
      35.70000000      90.00000000     360.00000000      45.31420893       1.52520081
      35.80000000      90.00000000     360.00000000      45.31425886       1.52520249
      35.90000000      90.00000000     360.00000000      45.31430880       1.52520417
      36.00000000      90.00000000     360.00000000      45.31435874       1.52520585
      36.10000000      90.00000000     360.00000000      45.31440868       1.52520753
      36.20000000      90.00000000     360.00000000      45.31445863       1.52520921
      36.30000000      90.00000000     360.00000000      45.31450859       1.52521090
      36.40000000      90.00000000     360.00000000      45.31455855       1.52521258
      36.50000000      90.00000000     360.00000000      45.31460852       1.52521426
      36.60000000      90.00000000     360.00000000      45.31465850       1.52521594
      36.70000000      90.00000000     360.00000000      45.31470847       1.52521762
      36.80000000      90.00000000     360.00000000      45.31475846       1.52521931
      36.90000000      90.00000000     360.00000000      45.31480845       1.52522099
      37.00000000      90.00000000     360.00000000      45.31485844       1.52522267
      37.10000000      90.00000000     360.00000000      45.31490845       1.52522435
      37.20000000      90.00000000     360.00000000      45.31495845       1.52522604
      37.30000000      90.00000000     360.00000000      45.31500846       1.52522772
      37.40000000      90.00000000     360.00000000      45.31505848       1.52522940
      37.50000000      90.00000000     360.00000000      45.31510850       1.52523109
      37.60000000      90.00000000     360.00000000      45.31515853       1.52523277
      37.70000000      90.00000000     360.00000000      45.31520857       1.52523446
      37.80000000      90.00000000     360.00000000      45.31525861       1.52523614
      37.90000000      90.00000000     360.00000000      45.31530865       1.52523782
      38.00000000      90.00000000     360.00000000      45.31535870       1.52523951
      38.10000000      90.00000000     360.00000000      45.31540876       1.52524119
      38.20000000      90.00000000     360.00000000      45.31545882       1.52524288
      38.30000000      90.00000000     360.00000000      45.31550889       1.52524456
      38.40000000      90.00000000     360.00000000      45.31555896       1.52524625
      38.50000000      90.00000000     360.00000000      45.31560904       1.52524794
      38.60000000      90.00000000     360.00000000      45.31565912       1.52524962
      38.70000000      90.00000000     360.00000000      45.31570921       1.52525131
      38.80000000      90.00000000     360.00000000      45.31575930       1.52525299
      38.90000000      90.00000000     360.00000000      45.31580940       1.52525468
      39.00000000      90.00000000     360.00000000      45.31585951       1.52525637
      39.10000000      90.00000000     360.00000000      45.31590962       1.52525805
      39.20000000      90.00000000     360.00000000      45.31595974       1.52525974
      39.30000000      90.00000000     360.00000000      45.31600986       1.52526143
      39.40000000      90.00000000     360.00000000      45.31605999       1.52526311
      39.50000000      90.00000000     360.00000000      45.31611012       1.52526480
      39.60000000      90.00000000     360.00000000      45.31616026       1.52526649
      39.70000000      90.00000000     360.00000000      45.31621040       1.52526818
      39.80000000      90.00000000     360.00000000      45.31626055       1.52526986
      39.90000000      90.00000000     360.00000000      45.31631071       1.52527155
      40.00000000      90.00000000     360.00000000      45.31636087       1.52527324
