 # applied field (T), theta (degree), phi (degree), abs [muB/unitcell], abs [T]
       0.00000000       0.00000000       0.00000000      45.01447524       1.50482494
       0.10000000       0.22640821      45.00000000      45.01447473       1.50482493
       0.20000000       0.45281658      45.00000000      45.01447318       1.50482487
       0.30000000       0.67922528      45.00000000      45.01447061       1.50482479
       0.40000000       0.90563446      45.00000000      45.01446702       1.50482467
       0.50000000       1.13204428      45.00000000      45.01446240       1.50482451
       0.60000000       1.35845492      45.00000000      45.01445676       1.50482433
       0.70000000       1.58486652      45.00000000      45.01445010       1.50482410
       0.80000000       1.81127926      45.00000000      45.01444243       1.50482385
       0.90000000       2.03769328      45.00000000      45.01443375       1.50482356
       1.00000000       2.26410876      45.00000000      45.01442407       1.50482323
       1.10000000       2.49052586      45.00000000      45.01441339       1.50482288
       1.20000000       2.71694473      45.00000000      45.01440172       1.50482249
       1.30000000       2.94336554      45.00000000      45.01438906       1.50482206
       1.40000000       3.16978844      45.00000000      45.01437543       1.50482161
       1.50000000       3.39621361      45.00000000      45.01436084       1.50482112
       1.60000000       3.62264120      45.00000000      45.01434528       1.50482060
       1.70000000       3.84907136      45.00000000      45.01432878       1.50482005
       1.80000000       4.07550428      45.00000000      45.01431133       1.50481946
       1.90000000       4.30194009      45.00000000      45.01429296       1.50481885
       2.00000000       4.47194012      45.00000000      45.01428210       1.50481849
       2.10000000       4.69838139      45.00000000      45.01426231       1.50481783
       2.20000000       4.92482599      45.00000000      45.01424163       1.50481713
       2.30000000       5.15127410      45.00000000      45.01422007       1.50481641
       2.40000000       5.37772587      45.00000000      45.01419764       1.50481566
       2.50000000       5.60418147      45.00000000      45.01417435       1.50481488
       2.60000000       5.83064105      45.00000000      45.01415023       1.50481408
       2.70000000       6.05710478      45.00000000      45.01412528       1.50481324
       2.80000000       6.28357280      45.00000000      45.01409953       1.50481238
       2.90000000       6.51004530      45.00000000      45.01407299       1.50481150
       3.00000000       6.73652241      45.00000000      45.01404567       1.50481058
       3.10000000       6.96300431      45.00000000      45.01401760       1.50480964
       3.20000000       7.18949115      45.00000000      45.01398879       1.50480868
       3.30000000       7.41598308      45.00000000      45.01395926       1.50480769
       3.40000000       7.64248028      45.00000000      45.01392904       1.50480668
       3.50000000       7.86898289      45.00000000      45.01389814       1.50480565
       3.60000000       8.09549108      45.00000000      45.01386658       1.50480460
       3.70000000       8.32200500      45.00000000      45.01383438       1.50480352
       3.80000000       8.54852481      45.00000000      45.01380157       1.50480242
       3.90000000       8.77505067      45.00000000      45.01376816       1.50480131
       4.00000000       9.00158274      45.00000000      45.01373418       1.50480017
       4.10000000       9.22812117      45.00000000      45.01369966       1.50479902
       4.20000000       9.45466612      45.00000000      45.01366462       1.50479784
       4.30000000       9.68121775      45.00000000      45.01362907       1.50479666
       4.40000000       9.90777621      45.00000000      45.01359306       1.50479545
       4.50000000      10.13434166      45.00000000      45.01355659       1.50479423
       4.60000000      10.36091425      45.00000000      45.01351970       1.50479300
       4.70000000      10.58749415      45.00000000      45.01348242       1.50479175
       4.80000000      10.81408151      45.00000000      45.01344476       1.50479049
       4.90000000      11.04067647      45.00000000      45.01340676       1.50478922
       5.00000000      11.26727920      45.00000000      45.01336845       1.50478794
       5.10000000      11.49388986      45.00000000      45.01332985       1.50478665
       5.20000000      11.72050859      45.00000000      45.01329099       1.50478535
       5.30000000      11.94713555      45.00000000      45.01325191       1.50478405
       5.40000000      12.17377089      45.00000000      45.01321262       1.50478273
       5.50000000      12.40041477      45.00000000      45.01317317       1.50478142
       5.60000000      12.62706734      45.00000000      45.01313357       1.50478009
       5.70000000      12.85372875      45.00000000      45.01309387       1.50477876
       5.80000000      13.08039915      45.00000000      45.01305409       1.50477743
       5.90000000      13.30707870      45.00000000      45.01301427       1.50477610
       6.00000000      13.53376754      45.00000000      45.01297443       1.50477477
       6.10000000      13.76046584      45.00000000      45.01293461       1.50477344
       6.20000000      13.98717373      45.00000000      45.01289484       1.50477211
       6.30000000      14.21389138      45.00000000      45.01285516       1.50477078
       6.40000000      14.44061892      45.00000000      45.01281560       1.50476946
       6.50000000      14.72387332      45.00000000      45.01275515       1.50476744
       6.60000000      14.95062375      45.00000000      45.01271582       1.50476613
       6.70000000      15.17738457      45.00000000      45.01267671       1.50476482
       6.80000000      15.40415592      45.00000000      45.01263788       1.50476352
       6.90000000      15.63093795      45.00000000      45.01259934       1.50476223
       7.00000000      15.85773081      45.00000000      45.01256114       1.50476096
       7.10000000      16.08453464      45.00000000      45.01252332       1.50475969
       7.20000000      16.31134959      45.00000000      45.01248590       1.50475844
       7.30000000      16.53817581      45.00000000      45.01244893       1.50475720
       7.40000000      16.76501344      45.00000000      45.01241243       1.50475598
       7.50000000      16.99186263      45.00000000      45.01237646       1.50475478
       7.60000000      17.21872352      45.00000000      45.01234105       1.50475360
       7.70000000      17.44559625      45.00000000      45.01230622       1.50475243
       7.80000000      17.67248097      45.00000000      45.01227203       1.50475129
       7.90000000      17.89937782      45.00000000      45.01223851       1.50475017
       8.00000000      18.12628694      45.00000000      45.01220570       1.50474907
       8.10000000      18.35320848      45.00000000      45.01217363       1.50474800
       8.20000000      18.58014257      45.00000000      45.01214235       1.50474696
       8.30000000      18.86366036      45.00000000      45.01209037       1.50474522
       8.40000000      19.09062330      45.00000000      45.01206085       1.50474423
       8.50000000      19.31759925      45.00000000      45.01203224       1.50474327
       8.60000000      19.54458836      45.00000000      45.01200458       1.50474235
       8.70000000      19.77159074      45.00000000      45.01197791       1.50474146
       8.80000000      19.99860655      45.00000000      45.01195227       1.50474060
       8.90000000      20.22563592      45.00000000      45.01192771       1.50473978
       9.00000000      20.45267899      45.00000000      45.01190425       1.50473900
       9.10000000      20.67973588      45.00000000      45.01188194       1.50473825
       9.20000000      20.90680674      45.00000000      45.01186082       1.50473754
       9.30000000      21.13389170      45.00000000      45.01184093       1.50473688
       9.40000000      21.41760137      45.00000000      45.01180221       1.50473558
       9.50000000      21.64471864      45.00000000      45.01178510       1.50473501
       9.60000000      21.87185045      45.00000000      45.01176935       1.50473449
       9.70000000      22.09899691      45.00000000      45.01175500       1.50473401
       9.80000000      22.32615816      45.00000000      45.01174209       1.50473357
       9.90000000      22.55333433      45.00000000      45.01173066       1.50473319
      10.00000000      22.78052555      45.00000000      45.01172076       1.50473286
      10.10000000      23.00773195      45.00000000      45.01171242       1.50473258
      10.20000000      23.29159587      45.00000000      45.01168748       1.50473175
      10.30000000      23.51883699      45.00000000      45.01168267       1.50473159
      10.40000000      23.74609370      45.00000000      45.01167956       1.50473148
      10.50000000      23.97336611      45.00000000      45.01167818       1.50473144
      10.60000000      24.20065436      45.00000000      45.01167857       1.50473145
      10.70000000      24.42795857      45.00000000      45.01168078       1.50473152
      10.80000000      24.65527885      45.00000000      45.01168484       1.50473166
      10.90000000      24.93928731      45.00000000      45.01167488       1.50473133
      11.00000000      25.16664433      45.00000000      45.01168313       1.50473160
      11.10000000      25.39401783      45.00000000      45.01169337       1.50473195
      11.20000000      25.62140790      45.00000000      45.01170563       1.50473236
      11.30000000      25.84881468      45.00000000      45.01171995       1.50473283
      11.40000000      26.07623828      45.00000000      45.01173638       1.50473338
      11.50000000      26.36037779      45.00000000      45.01174145       1.50473355
      11.60000000      26.58783979      45.00000000      45.01176262       1.50473426
      11.70000000      26.81531897      45.00000000      45.01178602       1.50473504
      11.80000000      27.04281546      45.00000000      45.01181168       1.50473590
      11.90000000      27.27032936      45.00000000      45.01183965       1.50473684
      12.00000000      27.55458335      45.00000000      45.01185883       1.50473748
      12.10000000      27.78213698      45.00000000      45.01189200       1.50473859
      12.20000000      28.00970838      45.00000000      45.01192759       1.50473978
      12.30000000      28.23729765      45.00000000      45.01196565       1.50474105
      12.40000000      28.52164716      45.00000000      45.01199720       1.50474210
      12.50000000      28.74927719      45.00000000      45.01204082       1.50474356
      12.60000000      28.97692543      45.00000000      45.01208702       1.50474511
      12.70000000      29.20459198      45.00000000      45.01213584       1.50474674
      12.80000000      29.43227695      45.00000000      45.01218731       1.50474846
      12.90000000      29.71674772      45.00000000      45.01223533       1.50475006
      13.00000000      29.94447466      45.00000000      45.01229279       1.50475198
      13.10000000      30.17222034      45.00000000      45.01235301       1.50475400
      13.20000000      30.39998485      45.00000000      45.01241603       1.50475610
      13.30000000      30.68455637      45.00000000      45.01247826       1.50475818
      13.40000000      30.91236378      45.00000000      45.01254760       1.50476050
      13.50000000      31.14019034      45.00000000      45.01261985       1.50476292
      13.60000000      31.42484042      45.00000000      45.01269345       1.50476538
      13.70000000      31.65271057      45.00000000      45.01277225       1.50476801
      13.80000000      31.88060014      45.00000000      45.01285407       1.50477075
      13.90000000      32.10850924      45.00000000      45.01293892       1.50477358
      14.00000000      32.39326384      45.00000000      45.01302808       1.50477657
      14.10000000      32.62121737      45.00000000      45.01311980       1.50477963
      14.20000000      32.84919070      45.00000000      45.01321465       1.50478280
      14.30000000      33.13402663      45.00000000      45.01331616       1.50478620
      14.40000000      33.36204501      45.00000000      45.01341809       1.50478960
      14.50000000      33.59008347      45.00000000      45.01352325       1.50479312
      14.60000000      33.87500183      45.00000000      45.01363751       1.50479694
      14.70000000      34.10308592      45.00000000      45.01374995       1.50480070
      14.80000000      34.33119033      45.00000000      45.01386571       1.50480457
      14.90000000      34.61619218      45.00000000      45.01399309       1.50480883
      15.00000000      34.84434280      45.00000000      45.01411633       1.50481294
      15.10000000      35.12940314      45.00000000      45.01425298       1.50481751
      15.20000000      35.35760033      45.00000000      45.01438382       1.50482189
      15.30000000      35.58581824      45.00000000      45.01451812       1.50482638
      15.40000000      35.87096375      45.00000000      45.01466847       1.50483140
      15.50000000      36.09922875      45.00000000      45.01481055       1.50483615
      15.60000000      36.32751469      45.00000000      45.01495616       1.50484102
      15.70000000      36.61274629      45.00000000      45.01512052       1.50484651
      15.80000000      36.84107980      45.00000000      45.01527407       1.50485165
      15.90000000      37.12637161      45.00000000      45.01544829       1.50485747
      16.00000000      37.35475302      45.00000000      45.01560988       1.50486287
      16.10000000      37.64010544      45.00000000      45.01579408       1.50486903
      16.20000000      37.86853504      45.00000000      45.01596382       1.50487471
      16.30000000      38.09698606      45.00000000      45.01613723       1.50488050
      16.40000000      38.38242656      45.00000000      45.01633611       1.50488715
      16.50000000      38.61092619      45.00000000      45.01651779       1.50489323
      16.60000000      38.89642823      45.00000000      45.01672694       1.50490022
      16.70000000      39.12497675      45.00000000      45.01691698       1.50490657
      16.80000000      39.41054065      45.00000000      45.01713650       1.50491391
      16.90000000      39.63913832      45.00000000      45.01733497       1.50492054
      17.00000000      39.92476443      45.00000000      45.01756497       1.50492823
      17.10000000      40.15341150      45.00000000      45.01777194       1.50493515
      17.20000000      40.43910013      45.00000000      45.01801250       1.50494319
      17.30000000      40.66779683      45.00000000      45.01822802       1.50495040
      17.40000000      40.95354828      45.00000000      45.01847923       1.50495880
      17.50000000      41.18229484      45.00000000      45.01870336       1.50496629
      17.60000000      41.46810939      45.00000000      45.01896529       1.50497504
      17.70000000      41.69690601      45.00000000      45.01919808       1.50498283
      17.80000000      41.98278394      45.00000000      45.01947078       1.50499194
      17.90000000      42.21163083      45.00000000      45.01971227       1.50500002
      18.00000000      42.49757239      45.00000000      45.01999580       1.50500949
      18.10000000      42.72646973      45.00000000      45.02024602       1.50501786
      18.20000000      43.01247517      45.00000000      45.02054043       1.50502770
      18.30000000      43.29851636      45.00000000      45.02084088       1.50503775
      18.40000000      43.52749268      45.00000000      45.02110473       1.50504657
      18.50000000      43.81359811      45.00000000      45.02141611       1.50505698
      18.60000000      44.04262531      45.00000000      45.02168876       1.50506609
      18.70000000      44.32879518      45.00000000      45.02201109       1.50507687
      18.80000000      44.61500112      45.00000000      45.02233952       1.50508784
      18.90000000      44.84410793      45.00000000      45.02262585       1.50509742
      19.00000000      45.13037863      45.00000000      45.02296525       1.50510876
      19.10000000      45.35953670      45.00000000      45.02326038       1.50511863
      19.20000000      45.64587234      45.00000000      45.02361076       1.50513034
      19.30000000      45.93224432      45.00000000      45.02396724       1.50514226
      19.40000000      46.16148254      45.00000000      45.02427605       1.50515258
      19.50000000      46.44791973      45.00000000      45.02464349       1.50516487
      19.60000000      46.73439342      45.00000000      45.02501702       1.50517735
      19.70000000      46.96371210      45.00000000      45.02533947       1.50518813
      19.80000000      47.25025125      45.00000000      45.02572395       1.50520099
      19.90000000      47.53682704      45.00000000      45.02611448       1.50521404
      20.00000000      47.76622645      45.00000000      45.02645051       1.50522527
      20.10000000      48.05286794      45.00000000      45.02685194       1.50523869
      20.20000000      48.33954619      45.00000000      45.02725940       1.50525232
      20.30000000      48.56902659      45.00000000      45.02760892       1.50526400
      20.40000000      48.85577076      45.00000000      45.02802721       1.50527798
      20.50000000      49.14255184      45.00000000      45.02845149       1.50529217
      20.60000000      49.37211345      45.00000000      45.02881439       1.50530430
      20.70000000      49.65896066      45.00000000      45.02924940       1.50531884
      20.80000000      49.94584488      45.00000000      45.02969035       1.50533358
      20.90000000      50.23276617      45.00000000      45.03013722       1.50534852
      21.00000000      50.46243851      45.00000000      45.03051807       1.50536125
      21.10000000      50.74942621      45.00000000      45.03097553       1.50537654
      21.20000000      51.03645109      45.00000000      45.03143884       1.50539203
      21.30000000      51.32351320      45.00000000      45.03190798       1.50540772
      21.40000000      51.55329666      45.00000000      45.03230647       1.50542104
      21.50000000      51.84042545      45.00000000      45.03278600       1.50543707
      21.60000000      52.12759159      45.00000000      45.03327127       1.50545329
      21.70000000      52.41479511      45.00000000      45.03376226       1.50546970
      21.80000000      52.64469012      45.00000000      45.03417802       1.50548360
      21.90000000      52.93196059      45.00000000      45.03467918       1.50550036
      22.00000000      53.21926858      45.00000000      45.03518595       1.50551730
      22.10000000      53.50661412      45.00000000      45.03569830       1.50553443
      22.20000000      53.79399726      45.00000000      45.03621619       1.50555174
      22.30000000      54.02403386      45.00000000      45.03665315       1.50556635
      22.40000000      54.31148431      45.00000000      45.03718086       1.50558399
      22.50000000      54.59897249      45.00000000      45.03771399       1.50560181
      22.60000000      54.88649844      45.00000000      45.03825250       1.50561981
      22.70000000      55.17406221      45.00000000      45.03879633       1.50563799
      22.80000000      55.40424111      45.00000000      45.03925366       1.50565328
      22.90000000      55.69187257      45.00000000      45.03980690       1.50567178
      23.00000000      55.97954199      45.00000000      45.04036532       1.50569044
      23.10000000      56.26724941      45.00000000      45.04092888       1.50570928
      23.20000000      56.55499489      45.00000000      45.04149751       1.50572829
      23.30000000      56.84277847      45.00000000      45.04207115       1.50574747
      23.40000000      57.13060021      45.00000000      45.04264974       1.50576681
      23.50000000      57.36098219      45.00000000      45.04313422       1.50578301
      23.60000000      57.64887221      45.00000000      45.04372152       1.50580264
      23.70000000      57.93680054      45.00000000      45.04431358       1.50582243
      23.80000000      58.22476722      45.00000000      45.04491035       1.50584238
      23.90000000      58.51277232      45.00000000      45.04551176       1.50586249
      24.00000000      58.80081589      45.00000000      45.04611773       1.50588275
      24.10000000      59.08889798      45.00000000      45.04672818       1.50590315
      24.20000000      59.37701865      45.00000000      45.04734303       1.50592371
      24.30000000      59.66517796      45.00000000      45.04796222       1.50594441
      24.40000000      59.95337595      45.00000000      45.04858565       1.50596525
      24.50000000      60.24161270      45.00000000      45.04921323       1.50598623
      24.60000000      60.47232096      45.00000000      45.04973557       1.50600369
      24.70000000      60.76062698      45.00000000      45.05037034       1.50602491
      24.80000000      61.04897190      45.00000000      45.05100900       1.50604626
      24.90000000      61.33735577      45.00000000      45.05165148       1.50606774
      25.00000000      61.62577864      45.00000000      45.05229765       1.50608934
      25.10000000      61.91424055      45.00000000      45.05294743       1.50611106
      25.20000000      62.20274158      45.00000000      45.05360070       1.50613290
      25.30000000      62.49128175      45.00000000      45.05425736       1.50615485
      25.40000000      62.77986112      45.00000000      45.05491729       1.50617691
      25.50000000      63.06847974      45.00000000      45.05558038       1.50619908
      25.60000000      63.41478941      45.00000000      45.05636360       1.50622526
      25.70000000      63.70349517      45.00000000      45.05703329       1.50624765
      25.80000000      63.99224031      45.00000000      45.05770576       1.50627013
      25.90000000      64.28102486      45.00000000      45.05838085       1.50629270
      26.00000000      64.56984886      45.00000000      45.05905844       1.50631535
      26.10000000      64.85871233      45.00000000      45.05973839       1.50633808
      26.20000000      65.14761530      45.00000000      45.06042056       1.50636089
      26.30000000      65.43655778      45.00000000      45.06110479       1.50638376
      26.40000000      65.72553979      45.00000000      45.06179095       1.50640670
      26.50000000      66.07229215      45.00000000      45.06260100       1.50643378
      26.60000000      66.36136187      45.00000000      45.06329092       1.50645684
      26.70000000      66.65047114      45.00000000      45.06398225       1.50647995
      26.80000000      66.93961995      45.00000000      45.06467483       1.50650311
      26.90000000      67.28657548      45.00000000      45.06549208       1.50653043
      27.00000000      67.57581194      45.00000000      45.06618688       1.50655365
      27.10000000      67.86508788      45.00000000      45.06688235       1.50657690
      27.20000000      68.21219824      45.00000000      45.06770263       1.50660432
      27.30000000      68.50156162      45.00000000      45.06839903       1.50662760
      27.40000000      68.79096433      45.00000000      45.06909550       1.50665089
      27.50000000      69.13822902      45.00000000      45.06991648       1.50667833
      27.60000000      69.42771877      45.00000000      45.07061248       1.50670160
      27.70000000      69.77508939      45.00000000      45.07143254       1.50672901
      27.80000000      70.06466576      45.00000000      45.07212707       1.50675223
      27.90000000      70.41214178      45.00000000      45.07294495       1.50677957
      28.00000000      70.75967547      45.00000000      45.07376117       1.50680686
      28.10000000      71.04938500      45.00000000      45.07445137       1.50682993
      28.20000000      71.39702298      45.00000000      45.07526340       1.50685708
      28.30000000      71.74471791      45.00000000      45.07607261       1.50688413
      28.40000000      72.09246950      45.00000000      45.07687860       1.50691107
      28.50000000      72.38235658      45.00000000      45.07755867       1.50693381
      28.60000000      72.73021030      45.00000000      45.07835752       1.50696052
      28.70000000      73.07811966      45.00000000      45.07915192       1.50698707
      28.80000000      73.42608422      45.00000000      45.07994142       1.50701346
      28.90000000      73.83206460      45.00000000      45.08084494       1.50704367
      29.00000000      74.18014803      45.00000000      45.08162235       1.50706966
      29.10000000      74.52828510      45.00000000      45.08239339       1.50709543
      29.20000000      74.87647523      45.00000000      45.08315760       1.50712098
      29.30000000      75.28271957      45.00000000      45.08402957       1.50715013
      29.40000000      75.68903636      45.00000000      45.08489104       1.50717893
      29.50000000      76.03740050      45.00000000      45.08562918       1.50720361
      29.60000000      76.44384796      45.00000000      45.08646900       1.50723168
      29.70000000      76.85036451      45.00000000      45.08729609       1.50725933
      29.80000000      77.25694884      45.00000000      45.08810967       1.50728653
      29.90000000      77.72166598      45.00000000      45.08901363       1.50731675
      30.00000000      78.12839163      45.00000000      45.08979566       1.50734289
      30.10000000      78.59326830      45.00000000      45.09066169       1.50737184
      30.20000000      79.05822703      45.00000000      45.09150583       1.50740006
      30.30000000      79.52326520      45.00000000      45.09232692       1.50742751
      30.40000000      80.04650167      45.00000000      45.09321485       1.50745719
      30.50000000      80.56983320      45.00000000      45.09407070       1.50748580
      30.60000000      81.09325539      45.00000000      45.09489286       1.50751329
      30.70000000      81.67491905      45.00000000      45.09575918       1.50754225
      30.80000000      82.25668449      45.00000000      45.09658007       1.50756969
      30.90000000      82.89672233      45.00000000      45.09742314       1.50759787
      31.00000000      83.65324638      45.00000000      45.09833317       1.50762830
      31.10000000      84.46811004      45.00000000      45.09921193       1.50765767
      31.20000000      85.34132643      45.00000000      45.10003301       1.50768512
      31.30000000      86.50579634      45.00000000      45.10091569       1.50771463
      31.40000000      88.31103977      45.00000000      45.10179660       1.50774408
      31.50000000      90.00000000      45.00000000      45.10209973       1.50775421
      31.60000000      90.00000000      45.00000000      45.10214653       1.50775578
      31.70000000      90.00000000      45.00000000      45.10219332       1.50775734
      31.80000000      90.00000000      45.00000000      45.10224013       1.50775891
      31.90000000      90.00000000      45.00000000      45.10228693       1.50776047
      32.00000000      90.00000000      45.00000000      45.10233374       1.50776204
      32.10000000      90.00000000      45.00000000      45.10238056       1.50776360
      32.20000000      90.00000000      45.00000000      45.10242738       1.50776517
      32.30000000      90.00000000      45.00000000      45.10247421       1.50776673
      32.40000000      90.00000000      45.00000000      45.10252103       1.50776830
      32.50000000      90.00000000      45.00000000      45.10256787       1.50776986
      32.60000000      90.00000000      45.00000000      45.10261471       1.50777143
      32.70000000      90.00000000      45.00000000      45.10266155       1.50777299
      32.80000000      90.00000000      45.00000000      45.10270840       1.50777456
      32.90000000      90.00000000      45.00000000      45.10275525       1.50777613
      33.00000000      90.00000000      45.00000000      45.10280211       1.50777769
      33.10000000      90.00000000      45.00000000      45.10284897       1.50777926
      33.20000000      90.00000000      45.00000000      45.10289584       1.50778083
      33.30000000      90.00000000      45.00000000      45.10294271       1.50778239
      33.40000000      90.00000000      45.00000000      45.10298959       1.50778396
      33.50000000      90.00000000      45.00000000      45.10303647       1.50778553
      33.60000000      90.00000000      45.00000000      45.10308335       1.50778709
      33.70000000      90.00000000      45.00000000      45.10313024       1.50778866
      33.80000000      90.00000000      45.00000000      45.10317714       1.50779023
      33.90000000      90.00000000      45.00000000      45.10322404       1.50779180
      34.00000000      90.00000000      45.00000000      45.10327094       1.50779337
      34.10000000      90.00000000      45.00000000      45.10331785       1.50779493
      34.20000000      90.00000000      45.00000000      45.10336476       1.50779650
      34.30000000      90.00000000      45.00000000      45.10341168       1.50779807
      34.40000000      90.00000000      45.00000000      45.10345860       1.50779964
      34.50000000      90.00000000      45.00000000      45.10350553       1.50780121
      34.60000000      90.00000000      45.00000000      45.10355246       1.50780278
      34.70000000      90.00000000      45.00000000      45.10359940       1.50780435
      34.80000000      90.00000000      45.00000000      45.10364634       1.50780592
      34.90000000      90.00000000      45.00000000      45.10369328       1.50780748
      35.00000000      90.00000000      45.00000000      45.10374023       1.50780905
      35.10000000      90.00000000      45.00000000      45.10378719       1.50781062
      35.20000000      90.00000000      45.00000000      45.10383415       1.50781219
      35.30000000      90.00000000      45.00000000      45.10388111       1.50781376
      35.40000000      90.00000000      45.00000000      45.10392808       1.50781533
      35.50000000      90.00000000      45.00000000      45.10397505       1.50781690
      35.60000000      90.00000000      45.00000000      45.10402203       1.50781847
      35.70000000      90.00000000      45.00000000      45.10406902       1.50782005
      35.80000000      90.00000000      45.00000000      45.10411600       1.50782162
      35.90000000      90.00000000      45.00000000      45.10416300       1.50782319
      36.00000000      90.00000000      45.00000000      45.10420999       1.50782476
      36.10000000      90.00000000      45.00000000      45.10425699       1.50782633
      36.20000000      90.00000000      45.00000000      45.10430400       1.50782790
      36.30000000      90.00000000      45.00000000      45.10435101       1.50782947
      36.40000000      90.00000000      45.00000000      45.10439803       1.50783104
      36.50000000      90.00000000      45.00000000      45.10444505       1.50783262
      36.60000000      90.00000000      45.00000000      45.10449207       1.50783419
      36.70000000      90.00000000      45.00000000      45.10453910       1.50783576
      36.80000000      90.00000000      45.00000000      45.10458613       1.50783733
      36.90000000      90.00000000      45.00000000      45.10463317       1.50783890
      37.00000000      90.00000000      45.00000000      45.10468022       1.50784048
      37.10000000      90.00000000      45.00000000      45.10472727       1.50784205
      37.20000000      90.00000000      45.00000000      45.10477432       1.50784362
      37.30000000      90.00000000      45.00000000      45.10482138       1.50784520
      37.40000000      90.00000000      45.00000000      45.10486844       1.50784677
      37.50000000      90.00000000      45.00000000      45.10491551       1.50784834
      37.60000000      90.00000000      45.00000000      45.10496258       1.50784992
      37.70000000      90.00000000      45.00000000      45.10500965       1.50785149
      37.80000000      90.00000000      45.00000000      45.10505673       1.50785306
      37.90000000      90.00000000      45.00000000      45.10510382       1.50785464
      38.00000000      90.00000000      45.00000000      45.10515091       1.50785621
      38.10000000      90.00000000      45.00000000      45.10519801       1.50785779
      38.20000000      90.00000000      45.00000000      45.10524511       1.50785936
      38.30000000      90.00000000      45.00000000      45.10529221       1.50786094
      38.40000000      90.00000000      45.00000000      45.10533932       1.50786251
      38.50000000      90.00000000      45.00000000      45.10538643       1.50786409
      38.60000000      90.00000000      45.00000000      45.10543355       1.50786566
      38.70000000      90.00000000      45.00000000      45.10548068       1.50786724
      38.80000000      90.00000000      45.00000000      45.10552780       1.50786881
      38.90000000      90.00000000      45.00000000      45.10557494       1.50787039
      39.00000000      90.00000000      45.00000000      45.10562207       1.50787196
      39.10000000      90.00000000      45.00000000      45.10566922       1.50787354
      39.20000000      90.00000000      45.00000000      45.10571636       1.50787512
      39.30000000      90.00000000      45.00000000      45.10576351       1.50787669
      39.40000000      90.00000000      45.00000000      45.10581067       1.50787827
      39.50000000      90.00000000      45.00000000      45.10585783       1.50787985
      39.60000000      90.00000000      45.00000000      45.10590500       1.50788142
      39.70000000      90.00000000      45.00000000      45.10595217       1.50788300
      39.80000000      90.00000000      45.00000000      45.10599934       1.50788458
      39.90000000      90.00000000      45.00000000      45.10604652       1.50788615
      40.00000000      90.00000000      45.00000000      45.10609371       1.50788773
