 # applied field (T), theta (degree), phi (degree), abs [muB/unitcell], abs [T]
       0.00000000       0.00000000       0.00000000      35.70514329       1.19361583
       0.10000000       0.39843742      45.00000000      35.70513341       1.19361550
       0.20000000       0.79687545      45.00000000      35.70510375       1.19361451
       0.30000000       1.19531468      45.00000000      35.70505432       1.19361286
       0.40000000       1.59375574      45.00000000      35.70498514       1.19361054
       0.50000000       2.04901434      45.00000000      35.70488063       1.19360705
       0.60000000       2.44746134      45.00000000      35.70476894       1.19360332
       0.70000000       2.84591207      45.00000000      35.70463756       1.19359892
       0.80000000       3.24436711      45.00000000      35.70448653       1.19359387
       0.90000000       3.64282708      45.00000000      35.70431588       1.19358817
       1.00000000       4.04129258      45.00000000      35.70412566       1.19358181
       1.10000000       4.43976419      45.00000000      35.70391591       1.19357480
       1.20000000       4.83824253      45.00000000      35.70368668       1.19356714
       1.30000000       5.29355005      45.00000000      35.70339763       1.19355747
       1.40000000       5.69204485      45.00000000      35.70312661       1.19354841
       1.50000000       6.09054824      45.00000000      35.70283631       1.19353871
       1.60000000       6.48906081      45.00000000      35.70252678       1.19352836
       1.70000000       6.88758315      45.00000000      35.70219812       1.19351737
       1.80000000       7.28611584      45.00000000      35.70185039       1.19350575
       1.90000000       7.68465947      45.00000000      35.70148368       1.19349349
       2.00000000       8.14004728      45.00000000      35.70103640       1.19347854
       2.10000000       8.53861639      45.00000000      35.70062908       1.19346492
       2.20000000       8.93719824      45.00000000      35.70020308       1.19345068
       2.30000000       9.33579343      45.00000000      35.69975850       1.19343582
       2.40000000       9.73440251      45.00000000      35.69929544       1.19342034
       2.50000000      10.18986924      45.00000000      35.69873743       1.19340168
       2.60000000      10.58851011      45.00000000      35.69823492       1.19338488
       2.70000000      10.98716663      45.00000000      35.69771430       1.19336748
       2.80000000      11.38583937      45.00000000      35.69717570       1.19334948
       2.90000000      11.78452888      45.00000000      35.69661925       1.19333087
       3.00000000      12.24009165      45.00000000      35.69595403       1.19330863
       3.10000000      12.63881905      45.00000000      35.69535952       1.19328876
       3.20000000      13.03756492      45.00000000      35.69474760       1.19326830
       3.30000000      13.43632979      45.00000000      35.69411840       1.19324727
       3.40000000      13.89198200      45.00000000      35.69336977       1.19322224
       3.50000000      14.29078951      45.00000000      35.69270383       1.19319998
       3.60000000      14.68961768      45.00000000      35.69202110       1.19317716
       3.70000000      15.14534473      45.00000000      35.69121115       1.19315008
       3.80000000      15.54421903      45.00000000      35.69049276       1.19312607
       3.90000000      15.94311559      45.00000000      35.68975811       1.19310151
       4.00000000      16.34203490      45.00000000      35.68900737       1.19307641
       4.10000000      16.79786936      45.00000000      35.68811958       1.19304673
       4.20000000      17.19683925      45.00000000      35.68733474       1.19302049
       4.30000000      17.65273319      45.00000000      35.68640794       1.19298951
       4.40000000      18.05175588      45.00000000      35.68558985       1.19296216
       4.50000000      18.45080385      45.00000000      35.68475666       1.19293431
       4.60000000      18.90678948      45.00000000      35.68377460       1.19290148
       4.70000000      19.30589341      45.00000000      35.68290948       1.19287256
       4.80000000      19.76194463      45.00000000      35.68189095       1.19283851
       4.90000000      20.16110659      45.00000000      35.68099483       1.19280855
       5.00000000      20.56029623      45.00000000      35.68008469       1.19277813
       5.10000000      21.01644778      45.00000000      35.67901479       1.19274236
       5.20000000      21.41569838      45.00000000      35.67807508       1.19271095
       5.30000000      21.87192121      45.00000000      35.67697147       1.19267405
       5.40000000      22.27123470      45.00000000      35.67600321       1.19264168
       5.50000000      22.72753100      45.00000000      35.67486706       1.19260370
       5.60000000      23.18386748      45.00000000      35.67371393       1.19256515
       5.70000000      23.58328111      45.00000000      35.67270382       1.19253139
       5.80000000      24.03969425      45.00000000      35.67152002       1.19249181
       5.90000000      24.43917534      45.00000000      35.67048405       1.19245718
       6.00000000      24.89566714      45.00000000      35.66927083       1.19241662
       6.10000000      25.35220181      45.00000000      35.66804231       1.19237555
       6.20000000      25.75178972      45.00000000      35.66696874       1.19233966
       6.30000000      26.20840593      45.00000000      35.66571278       1.19229768
       6.40000000      26.66506651      45.00000000      35.66444260       1.19225521
       6.50000000      27.06476494      45.00000000      35.66333411       1.19221816
       6.60000000      27.52150975      45.00000000      35.66203851       1.19217485
       6.70000000      27.97830031      45.00000000      35.66072979       1.19213110
       6.80000000      28.43513710      45.00000000      35.65940834       1.19208692
       6.90000000      28.89202054      45.00000000      35.65807455       1.19204233
       7.00000000      29.34895109      45.00000000      35.65672882       1.19199734
       7.10000000      29.74888607      45.00000000      35.65555740       1.19195818
       7.20000000      30.20590571      45.00000000      35.65419056       1.19191249
       7.30000000      30.66297361      45.00000000      35.65281292       1.19186644
       7.40000000      31.12009014      45.00000000      35.65142490       1.19182003
       7.50000000      31.57725567      45.00000000      35.65002688       1.19177330
       7.60000000      32.03447056      45.00000000      35.64861930       1.19172624
       7.70000000      32.49173514      45.00000000      35.64720255       1.19167888
       7.80000000      33.00613827      45.00000000      35.64558115       1.19162468
       7.90000000      33.46350986      45.00000000      35.64414609       1.19157671
       8.00000000      33.92093210      45.00000000      35.64270318       1.19152847
       8.10000000      34.37840527      45.00000000      35.64125282       1.19147998
       8.20000000      34.83592964      45.00000000      35.63979544       1.19143126
       8.30000000      35.35062870      45.00000000      35.63812980       1.19137558
       8.40000000      35.80826306      45.00000000      35.63665868       1.19132640
       8.50000000      36.26594935      45.00000000      35.63518187       1.19127703
       8.60000000      36.78083263      45.00000000      35.63349530       1.19122065
       8.70000000      37.23863033      45.00000000      35.63200758       1.19117092
       8.80000000      37.75364030      45.00000000      35.63030939       1.19111415
       8.90000000      38.21155022      45.00000000      35.62881268       1.19106411
       9.00000000      38.72668771      45.00000000      35.62710505       1.19100703
       9.10000000      39.18471048      45.00000000      35.62560129       1.19095676
       9.20000000      39.69997617      45.00000000      35.62388640       1.19089943
       9.30000000      40.21531018      45.00000000      35.62216843       1.19084200
       9.40000000      40.73071265      45.00000000      35.62044801       1.19078448
       9.50000000      41.18896966      45.00000000      35.61893565       1.19073393
       9.60000000      41.70450122      45.00000000      35.61721246       1.19067632
       9.70000000      42.22010146      45.00000000      35.61548858       1.19061869
       9.80000000      42.73577042      45.00000000      35.61376462       1.19056106
       9.90000000      43.25150809      45.00000000      35.61204120       1.19050345
      10.00000000      43.76731446      45.00000000      35.61031891       1.19044587
      10.10000000      44.34045217      45.00000000      35.60838771       1.19038131
      10.20000000      44.85640393      45.00000000      35.60666964       1.19032388
      10.30000000      45.37242420      45.00000000      35.60495459       1.19026654
      10.40000000      45.94580082      45.00000000      35.60303307       1.19020231
      10.50000000      46.46196584      45.00000000      35.60132619       1.19014524
      10.60000000      47.03550400      45.00000000      35.59941485       1.19008135
      10.70000000      47.55181306      45.00000000      35.59771880       1.19002465
      10.80000000      48.12551189      45.00000000      35.59582059       1.18996119
      10.90000000      48.69929513      45.00000000      35.59393039       1.18989800
      11.00000000      49.27316243      45.00000000      35.59204899       1.18983511
      11.10000000      49.84711340      45.00000000      35.59017719       1.18977254
      11.20000000      50.42114763      45.00000000      35.58831580       1.18971031
      11.30000000      50.99526467      45.00000000      35.58646560       1.18964846
      11.40000000      51.62684033      45.00000000      35.58442439       1.18958022
      11.50000000      52.20113021      45.00000000      35.58260008       1.18951923
      11.60000000      52.83289589      45.00000000      35.58058890       1.18945200
      11.70000000      53.40735613      45.00000000      35.57879391       1.18939200
      11.80000000      54.03930896      45.00000000      35.57681649       1.18932589
      11.90000000      54.67135887      45.00000000      35.57485815       1.18926042
      12.00000000      55.30350494      45.00000000      35.57291987       1.18919563
      12.10000000      55.99318768      45.00000000      35.57081031       1.18912511
      12.20000000      56.62553218      45.00000000      35.56891702       1.18906181
      12.30000000      57.31543019      45.00000000      35.56685854       1.18899300
      12.40000000      58.00543872      45.00000000      35.56482846       1.18892513
      12.50000000      58.69555627      45.00000000      35.56282798       1.18885826
      12.60000000      59.38578122      45.00000000      35.56085833       1.18879241
      12.70000000      60.13361167      45.00000000      35.55874232       1.18872167
      12.80000000      60.88156543      45.00000000      35.55666508       1.18865223
      12.90000000      61.62964022      45.00000000      35.55462805       1.18858414
      13.00000000      62.37783368      45.00000000      35.55263268       1.18851743
      13.10000000      63.18368304      45.00000000      35.55051456       1.18844662
      13.20000000      63.98966543      45.00000000      35.54844785       1.18837753
      13.30000000      64.79577755      45.00000000      35.54643424       1.18831022
      13.40000000      65.65958596      45.00000000      35.54432102       1.18823957
      13.50000000      66.52353653      45.00000000      35.54227239       1.18817109
      13.60000000      67.44521525      45.00000000      35.54014486       1.18809997
      13.70000000      68.42464773      45.00000000      35.53795476       1.18802675
      13.80000000      69.40424703      45.00000000      35.53585481       1.18795655
      13.90000000      70.44162808      45.00000000      35.53371830       1.18788513
      14.00000000      71.47918091      45.00000000      35.53168838       1.18781727
      14.10000000      72.63218155      45.00000000      35.52953429       1.18774526
      14.20000000      73.84302705      45.00000000      35.52740909       1.18767421
      14.30000000      75.16939790      45.00000000      35.52523736       1.18760161
      14.40000000      76.61133797      45.00000000      35.52307295       1.18752925
      14.50000000      78.22657022      45.00000000      35.52089458       1.18745643
      14.60000000      80.07284899      45.00000000      35.51873420       1.18738421
      14.70000000      82.38107112      45.00000000      35.51653091       1.18731056
      14.80000000      85.72855186      45.00000000      35.51435343       1.18723776
      14.90000000      90.00000000      45.00000000      35.51348797       1.18720883
      15.00000000      90.00000000      45.00000000      35.51374303       1.18721736
      15.10000000      90.00000000      45.00000000      35.51399807       1.18722588
      15.20000000      90.00000000      45.00000000      35.51425309       1.18723441
      15.30000000      90.00000000      45.00000000      35.51450808       1.18724293
      15.40000000      90.00000000      45.00000000      35.51476305       1.18725146
      15.50000000      90.00000000      45.00000000      35.51501801       1.18725998
      15.60000000      90.00000000      45.00000000      35.51527294       1.18726850
      15.70000000      90.00000000      45.00000000      35.51552784       1.18727702
      15.80000000      90.00000000      45.00000000      35.51578273       1.18728554
      15.90000000      90.00000000      45.00000000      35.51603759       1.18729406
      16.00000000      90.00000000      45.00000000      35.51629244       1.18730258
      16.10000000      90.00000000      45.00000000      35.51654726       1.18731110
      16.20000000      90.00000000      45.00000000      35.51680206       1.18731962
      16.30000000      90.00000000      45.00000000      35.51705683       1.18732814
      16.40000000      90.00000000      45.00000000      35.51731159       1.18733665
      16.50000000      90.00000000      45.00000000      35.51756632       1.18734517
      16.60000000      90.00000000      45.00000000      35.51782103       1.18735368
      16.70000000      90.00000000      45.00000000      35.51807572       1.18736220
      16.80000000      90.00000000      45.00000000      35.51833039       1.18737071
      16.90000000      90.00000000      45.00000000      35.51858504       1.18737922
      17.00000000      90.00000000      45.00000000      35.51883966       1.18738774
      17.10000000      90.00000000      45.00000000      35.51909426       1.18739625
      17.20000000      90.00000000      45.00000000      35.51934884       1.18740476
      17.30000000      90.00000000      45.00000000      35.51960340       1.18741327
      17.40000000      90.00000000      45.00000000      35.51985794       1.18742178
      17.50000000      90.00000000      45.00000000      35.52011246       1.18743029
      17.60000000      90.00000000      45.00000000      35.52036695       1.18743879
      17.70000000      90.00000000      45.00000000      35.52062142       1.18744730
      17.80000000      90.00000000      45.00000000      35.52087587       1.18745581
      17.90000000      90.00000000      45.00000000      35.52113030       1.18746431
      18.00000000      90.00000000      45.00000000      35.52138471       1.18747282
      18.10000000      90.00000000      45.00000000      35.52163909       1.18748132
      18.20000000      90.00000000      45.00000000      35.52189346       1.18748982
      18.30000000      90.00000000      45.00000000      35.52214780       1.18749833
      18.40000000      90.00000000      45.00000000      35.52240212       1.18750683
      18.50000000      90.00000000      45.00000000      35.52265642       1.18751533
      18.60000000      90.00000000      45.00000000      35.52291070       1.18752383
      18.70000000      90.00000000      45.00000000      35.52316495       1.18753233
      18.80000000      90.00000000      45.00000000      35.52341918       1.18754083
      18.90000000      90.00000000      45.00000000      35.52367340       1.18754933
      19.00000000      90.00000000      45.00000000      35.52392759       1.18755783
      19.10000000      90.00000000      45.00000000      35.52418176       1.18756632
      19.20000000      90.00000000      45.00000000      35.52443590       1.18757482
      19.30000000      90.00000000      45.00000000      35.52469003       1.18758331
      19.40000000      90.00000000      45.00000000      35.52494413       1.18759181
      19.50000000      90.00000000      45.00000000      35.52519822       1.18760030
      19.60000000      90.00000000      45.00000000      35.52545228       1.18760880
      19.70000000      90.00000000      45.00000000      35.52570632       1.18761729
      19.80000000      90.00000000      45.00000000      35.52596034       1.18762578
      19.90000000      90.00000000      45.00000000      35.52621433       1.18763427
      20.00000000      90.00000000      45.00000000      35.52646831       1.18764276
      20.10000000      90.00000000      45.00000000      35.52672226       1.18765125
      20.20000000      90.00000000      45.00000000      35.52697619       1.18765974
      20.30000000      90.00000000      45.00000000      35.52723010       1.18766823
      20.40000000      90.00000000      45.00000000      35.52748399       1.18767671
      20.50000000      90.00000000      45.00000000      35.52773786       1.18768520
      20.60000000      90.00000000      45.00000000      35.52799171       1.18769369
      20.70000000      90.00000000      45.00000000      35.52824553       1.18770217
      20.80000000      90.00000000      45.00000000      35.52849933       1.18771066
      20.90000000      90.00000000      45.00000000      35.52875311       1.18771914
      21.00000000      90.00000000      45.00000000      35.52900687       1.18772762
      21.10000000      90.00000000      45.00000000      35.52926061       1.18773611
      21.20000000      90.00000000      45.00000000      35.52951433       1.18774459
      21.30000000      90.00000000      45.00000000      35.52976803       1.18775307
      21.40000000      90.00000000      45.00000000      35.53002170       1.18776155
      21.50000000      90.00000000      45.00000000      35.53027535       1.18777003
      21.60000000      90.00000000      45.00000000      35.53052899       1.18777851
      21.70000000      90.00000000      45.00000000      35.53078260       1.18778699
      21.80000000      90.00000000      45.00000000      35.53103618       1.18779546
      21.90000000      90.00000000      45.00000000      35.53128975       1.18780394
      22.00000000      90.00000000      45.00000000      35.53154330       1.18781242
      22.10000000      90.00000000      45.00000000      35.53179682       1.18782089
      22.20000000      90.00000000      45.00000000      35.53205033       1.18782937
      22.30000000      90.00000000      45.00000000      35.53230381       1.18783784
      22.40000000      90.00000000      45.00000000      35.53255727       1.18784631
      22.50000000      90.00000000      45.00000000      35.53281071       1.18785479
      22.60000000      90.00000000      45.00000000      35.53306413       1.18786326
      22.70000000      90.00000000      45.00000000      35.53331752       1.18787173
      22.80000000      90.00000000      45.00000000      35.53357090       1.18788020
      22.90000000      90.00000000      45.00000000      35.53382425       1.18788867
      23.00000000      90.00000000      45.00000000      35.53407759       1.18789714
      23.10000000      90.00000000      45.00000000      35.53433090       1.18790561
      23.20000000      90.00000000      45.00000000      35.53458419       1.18791407
      23.30000000      90.00000000      45.00000000      35.53483746       1.18792254
      23.40000000      90.00000000      45.00000000      35.53509071       1.18793101
      23.50000000      90.00000000      45.00000000      35.53534393       1.18793947
      23.60000000      90.00000000      45.00000000      35.53559714       1.18794794
      23.70000000      90.00000000      45.00000000      35.53585032       1.18795640
      23.80000000      90.00000000      45.00000000      35.53610348       1.18796486
      23.90000000      90.00000000      45.00000000      35.53635663       1.18797333
      24.00000000      90.00000000      45.00000000      35.53660975       1.18798179
      24.10000000      90.00000000      45.00000000      35.53686285       1.18799025
      24.20000000      90.00000000      45.00000000      35.53711592       1.18799871
      24.30000000      90.00000000      45.00000000      35.53736898       1.18800717
      24.40000000      90.00000000      45.00000000      35.53762202       1.18801563
      24.50000000      90.00000000      45.00000000      35.53787503       1.18802409
      24.60000000      90.00000000      45.00000000      35.53812802       1.18803254
      24.70000000      90.00000000      45.00000000      35.53838100       1.18804100
      24.80000000      90.00000000      45.00000000      35.53863395       1.18804946
      24.90000000      90.00000000      45.00000000      35.53888688       1.18805791
      25.00000000      90.00000000      45.00000000      35.53913979       1.18806637
      25.10000000      90.00000000      45.00000000      35.53939267       1.18807482
      25.20000000      90.00000000      45.00000000      35.53964554       1.18808327
      25.30000000      90.00000000      45.00000000      35.53989839       1.18809173
      25.40000000      90.00000000      45.00000000      35.54015121       1.18810018
      25.50000000      90.00000000      45.00000000      35.54040401       1.18810863
      25.60000000      90.00000000      45.00000000      35.54065680       1.18811708
      25.70000000      90.00000000      45.00000000      35.54090956       1.18812553
      25.80000000      90.00000000      45.00000000      35.54116230       1.18813398
      25.90000000      90.00000000      45.00000000      35.54141502       1.18814243
      26.00000000      90.00000000      45.00000000      35.54166772       1.18815087
      26.10000000      90.00000000      45.00000000      35.54192039       1.18815932
      26.20000000      90.00000000      45.00000000      35.54217305       1.18816777
      26.30000000      90.00000000      45.00000000      35.54242568       1.18817621
      26.40000000      90.00000000      45.00000000      35.54267830       1.18818466
      26.50000000      90.00000000      45.00000000      35.54293089       1.18819310
      26.60000000      90.00000000      45.00000000      35.54318346       1.18820155
      26.70000000      90.00000000      45.00000000      35.54343601       1.18820999
      26.80000000      90.00000000      45.00000000      35.54368854       1.18821843
      26.90000000      90.00000000      45.00000000      35.54394105       1.18822687
      27.00000000      90.00000000      45.00000000      35.54419354       1.18823531
      27.10000000      90.00000000      45.00000000      35.54444601       1.18824375
      27.20000000      90.00000000      45.00000000      35.54469845       1.18825219
      27.30000000      90.00000000      45.00000000      35.54495088       1.18826063
      27.40000000      90.00000000      45.00000000      35.54520328       1.18826907
      27.50000000      90.00000000      45.00000000      35.54545567       1.18827750
      27.60000000      90.00000000      45.00000000      35.54570803       1.18828594
      27.70000000      90.00000000      45.00000000      35.54596037       1.18829438
      27.80000000      90.00000000      45.00000000      35.54621269       1.18830281
      27.90000000      90.00000000      45.00000000      35.54646499       1.18831125
      28.00000000      90.00000000      45.00000000      35.54671727       1.18831968
      28.10000000      90.00000000      45.00000000      35.54696953       1.18832811
      28.20000000      90.00000000      45.00000000      35.54722176       1.18833654
      28.30000000      90.00000000      45.00000000      35.54747398       1.18834498
      28.40000000      90.00000000      45.00000000      35.54772618       1.18835341
      28.50000000      90.00000000      45.00000000      35.54797835       1.18836184
      28.60000000      90.00000000      45.00000000      35.54823050       1.18837027
      28.70000000      90.00000000      45.00000000      35.54848264       1.18837870
      28.80000000      90.00000000      45.00000000      35.54873475       1.18838712
      28.90000000      90.00000000      45.00000000      35.54898684       1.18839555
      29.00000000      90.00000000      45.00000000      35.54923891       1.18840398
      29.10000000      90.00000000      45.00000000      35.54949096       1.18841240
      29.20000000      90.00000000      45.00000000      35.54974299       1.18842083
      29.30000000      90.00000000      45.00000000      35.54999500       1.18842925
      29.40000000      90.00000000      45.00000000      35.55024699       1.18843768
      29.50000000      90.00000000      45.00000000      35.55049895       1.18844610
      29.60000000      90.00000000      45.00000000      35.55075090       1.18845452
      29.70000000      90.00000000      45.00000000      35.55100282       1.18846294
      29.80000000      90.00000000      45.00000000      35.55125473       1.18847137
      29.90000000      90.00000000      45.00000000      35.55150661       1.18847979
      30.00000000      90.00000000      45.00000000      35.55175847       1.18848821
      30.10000000      90.00000000      45.00000000      35.55201032       1.18849663
      30.20000000      90.00000000      45.00000000      35.55226214       1.18850504
      30.30000000      90.00000000      45.00000000      35.55251394       1.18851346
      30.40000000      90.00000000      45.00000000      35.55276572       1.18852188
      30.50000000      90.00000000      45.00000000      35.55301748       1.18853029
      30.60000000      90.00000000      45.00000000      35.55326922       1.18853871
      30.70000000      90.00000000      45.00000000      35.55352094       1.18854712
      30.80000000      90.00000000      45.00000000      35.55377263       1.18855554
      30.90000000      90.00000000      45.00000000      35.55402431       1.18856395
      31.00000000      90.00000000      45.00000000      35.55427597       1.18857237
      31.10000000      90.00000000      45.00000000      35.55452760       1.18858078
      31.20000000      90.00000000      45.00000000      35.55477922       1.18858919
      31.30000000      90.00000000      45.00000000      35.55503081       1.18859760
      31.40000000      90.00000000      45.00000000      35.55528238       1.18860601
      31.50000000      90.00000000      45.00000000      35.55553394       1.18861442
      31.60000000      90.00000000      45.00000000      35.55578547       1.18862283
      31.70000000      90.00000000      45.00000000      35.55603698       1.18863124
      31.80000000      90.00000000      45.00000000      35.55628847       1.18863964
      31.90000000      90.00000000      45.00000000      35.55653994       1.18864805
      32.00000000      90.00000000      45.00000000      35.55679139       1.18865646
      32.10000000      90.00000000      45.00000000      35.55704282       1.18866486
      32.20000000      90.00000000      45.00000000      35.55729423       1.18867327
      32.30000000      90.00000000      45.00000000      35.55754562       1.18868167
      32.40000000      90.00000000      45.00000000      35.55779699       1.18869007
      32.50000000      90.00000000      45.00000000      35.55804834       1.18869847
      32.60000000      90.00000000      45.00000000      35.55829966       1.18870688
      32.70000000      90.00000000      45.00000000      35.55855097       1.18871528
      32.80000000      90.00000000      45.00000000      35.55880226       1.18872368
      32.90000000      90.00000000      45.00000000      35.55905352       1.18873208
      33.00000000      90.00000000      45.00000000      35.55930477       1.18874048
      33.10000000      90.00000000      45.00000000      35.55955599       1.18874888
      33.20000000      90.00000000      45.00000000      35.55980720       1.18875727
      33.30000000      90.00000000      45.00000000      35.56005838       1.18876567
      33.40000000      90.00000000      45.00000000      35.56030954       1.18877407
      33.50000000      90.00000000      45.00000000      35.56056069       1.18878246
      33.60000000      90.00000000      45.00000000      35.56081181       1.18879086
      33.70000000      90.00000000      45.00000000      35.56106291       1.18879925
      33.80000000      90.00000000      45.00000000      35.56131399       1.18880765
      33.90000000      90.00000000      45.00000000      35.56156505       1.18881604
      34.00000000      90.00000000      45.00000000      35.56181609       1.18882443
      34.10000000      90.00000000      45.00000000      35.56206711       1.18883282
      34.20000000      90.00000000      45.00000000      35.56231811       1.18884121
      34.30000000      90.00000000      45.00000000      35.56256909       1.18884960
      34.40000000      90.00000000      45.00000000      35.56282005       1.18885799
      34.50000000      90.00000000      45.00000000      35.56307099       1.18886638
      34.60000000      90.00000000      45.00000000      35.56332191       1.18887477
      34.70000000      90.00000000      45.00000000      35.56357281       1.18888316
      34.80000000      90.00000000      45.00000000      35.56382369       1.18889154
      34.90000000      90.00000000      45.00000000      35.56407454       1.18889993
      35.00000000      90.00000000      45.00000000      35.56432538       1.18890832
      35.10000000      90.00000000      45.00000000      35.56457620       1.18891670
      35.20000000      90.00000000      45.00000000      35.56482699       1.18892508
      35.30000000      90.00000000      45.00000000      35.56507777       1.18893347
      35.40000000      90.00000000      45.00000000      35.56532853       1.18894185
      35.50000000      90.00000000      45.00000000      35.56557926       1.18895023
      35.60000000      90.00000000      45.00000000      35.56582998       1.18895861
      35.70000000      90.00000000      45.00000000      35.56608067       1.18896699
      35.80000000      90.00000000      45.00000000      35.56633135       1.18897537
      35.90000000      90.00000000      45.00000000      35.56658200       1.18898375
      36.00000000      90.00000000      45.00000000      35.56683264       1.18899213
      36.10000000      90.00000000      45.00000000      35.56708325       1.18900051
      36.20000000      90.00000000      45.00000000      35.56733385       1.18900889
      36.30000000      90.00000000      45.00000000      35.56758442       1.18901726
      36.40000000      90.00000000      45.00000000      35.56783497       1.18902564
      36.50000000      90.00000000      45.00000000      35.56808551       1.18903402
      36.60000000      90.00000000      45.00000000      35.56833602       1.18904239
      36.70000000      90.00000000      45.00000000      35.56858651       1.18905076
      36.80000000      90.00000000      45.00000000      35.56883699       1.18905914
      36.90000000      90.00000000      45.00000000      35.56908744       1.18906751
      37.00000000      90.00000000      45.00000000      35.56933787       1.18907588
      37.10000000      90.00000000      45.00000000      35.56958828       1.18908425
      37.20000000      90.00000000      45.00000000      35.56983868       1.18909262
      37.30000000      90.00000000      45.00000000      35.57008905       1.18910099
      37.40000000      90.00000000      45.00000000      35.57033940       1.18910936
      37.50000000      90.00000000      45.00000000      35.57058973       1.18911773
      37.60000000      90.00000000      45.00000000      35.57084005       1.18912610
      37.70000000      90.00000000      45.00000000      35.57109034       1.18913447
      37.80000000      90.00000000      45.00000000      35.57134061       1.18914283
      37.90000000      90.00000000      45.00000000      35.57159086       1.18915120
      38.00000000      90.00000000      45.00000000      35.57184109       1.18915956
      38.10000000      90.00000000      45.00000000      35.57209130       1.18916793
      38.20000000      90.00000000      45.00000000      35.57234149       1.18917629
      38.30000000      90.00000000      45.00000000      35.57259167       1.18918466
      38.40000000      90.00000000      45.00000000      35.57284182       1.18919302
      38.50000000      90.00000000      45.00000000      35.57309195       1.18920138
      38.60000000      90.00000000      45.00000000      35.57334206       1.18920974
      38.70000000      90.00000000      45.00000000      35.57359215       1.18921810
      38.80000000      90.00000000      45.00000000      35.57384222       1.18922646
      38.90000000      90.00000000      45.00000000      35.57409227       1.18923482
      39.00000000      90.00000000      45.00000000      35.57434231       1.18924318
      39.10000000      90.00000000      45.00000000      35.57459232       1.18925154
      39.20000000      90.00000000      45.00000000      35.57484231       1.18925989
      39.30000000      90.00000000      45.00000000      35.57509228       1.18926825
      39.40000000      90.00000000      45.00000000      35.57534223       1.18927661
      39.50000000      90.00000000      45.00000000      35.57559216       1.18928496
      39.60000000      90.00000000      45.00000000      35.57584207       1.18929332
      39.70000000      90.00000000      45.00000000      35.57609197       1.18930167
      39.80000000      90.00000000      45.00000000      35.57634184       1.18931002
      39.90000000      90.00000000      45.00000000      35.57659169       1.18931838
      40.00000000      90.00000000      45.00000000      35.57684152       1.18932673
