 # applied field (T), theta (degree), phi (degree), abs for RE 3-4
     0.00000     0.00000     0.00000     4.70469     0.00000     0.00000     4.70469
     0.10000     0.27771   360.00000     4.70469     0.26069   360.00000     4.70469
     0.20000     0.55544   360.00000     4.70469     0.52140   360.00000     4.70469
     0.30000     0.83319   360.00000     4.70468     0.78213   360.00000     4.70468
     0.40000     1.06527   360.00000     4.70467     1.00000   360.00000     4.70467
     0.50000     1.34310   360.00000     4.70465     1.26082   360.00000     4.70465
     0.60000     1.62099   360.00000     4.70464     1.52171   360.00000     4.70464
     0.70000     1.89896   360.00000     4.70461     1.78268   360.00000     4.70462
     0.80000     2.17701   360.00000     4.70459     2.04376   360.00000     4.70459
     0.90000     2.45516   360.00000     4.70456     2.30494   360.00000     4.70456
     1.00000     2.73342   360.00000     4.70453     2.56624   360.00000     4.70453
     1.10000     3.01181   360.00000     4.70449     2.82769   360.00000     4.70450
     1.20000     3.29033   360.00000     4.70446     3.08929   360.00000     4.70446
     1.30000     3.52313   360.00000     4.70442     3.30798   360.00000     4.70443
     1.40000     3.80194   360.00000     4.70438     3.56990   360.00000     4.70439
     1.50000     4.08091   360.00000     4.70433     3.83201   360.00000     4.70434
     1.60000     4.36007   360.00000     4.70428     4.09433   360.00000     4.70429
     1.70000     4.63942   360.00000     4.70422     4.35687   360.00000     4.70424
     1.80000     4.91899   360.00000     4.70417     4.61965   360.00000     4.70418
     1.90000     5.19877   360.00000     4.70410     4.88268   360.00000     4.70412
     2.00000     5.47879   360.00000     4.70404     5.14598   360.00000     4.70406
     2.10000     5.75906   360.00000     4.70397     5.40955   360.00000     4.70399
     2.20000     6.03958   360.00000     4.70390     5.67342   360.00000     4.70392
     2.30000     6.32037   360.00000     4.70383     5.93759   360.00000     4.70385
     2.40000     6.60145   360.00000     4.70375     6.20209   360.00000     4.70377
     2.50000     6.88282   360.00000     4.70367     6.46692   360.00000     4.70369
     2.60000     7.16449   360.00000     4.70358     6.73210   360.00000     4.70361
     2.70000     7.44649   360.00000     4.70350     6.99764   360.00000     4.70352
     2.80000     7.72881   360.00000     4.70341     7.26356   360.00000     4.70343
     2.90000     8.01148   360.00000     4.70331     7.52988   360.00000     4.70334
     3.00000     8.29451   360.00000     4.70322     7.79660   360.00000     4.70325
     3.10000     8.57789   360.00000     4.70312     8.06374   360.00000     4.70315
     3.20000     8.86166   360.00000     4.70301     8.33131   360.00000     4.70304
     3.30000     9.14582   360.00000     4.70291     8.59933   360.00000     4.70294
     3.40000     9.43038   360.00000     4.70280     8.86782   360.00000     4.70283
     3.50000     9.71535   360.00000     4.70268     9.13678   360.00000     4.70272
     3.60000    10.00075   360.00000     4.70257     9.40623   360.00000     4.70260
     3.70000    10.28658   360.00000     4.70245     9.67619   360.00000     4.70248
     3.80000    10.62002   360.00000     4.70231     9.99122   360.00000     4.70234
     3.90000    10.90684   360.00000     4.70218    10.26232   360.00000     4.70222
     4.00000    11.19413   360.00000     4.70205    10.53397   360.00000     4.70209
     4.10000    11.48190   360.00000     4.70192    10.80618   360.00000     4.70196
     4.20000    11.77017   360.00000     4.70179    11.07896   360.00000     4.70182
     4.30000    12.10651   360.00000     4.70163    11.39738   360.00000     4.70166
     4.40000    12.39589   360.00000     4.70149    11.67146   360.00000     4.70152
     4.50000    12.68579   360.00000     4.70134    11.94617   360.00000     4.70138
     4.60000    13.02409   360.00000     4.70117    12.26687   360.00000     4.70120
     4.70000    13.31517   360.00000     4.70103    12.54296   360.00000     4.70105
     4.80000    13.60682   360.00000     4.70087    12.81972   360.00000     4.70090
     4.90000    13.94719   360.00000     4.70069    13.14287   360.00000     4.70071
     5.00000    14.24009   360.00000     4.70053    13.42111   360.00000     4.70055
     5.10000    14.58195   360.00000     4.70035    13.74603   360.00000     4.70036
     5.20000    14.87614   360.00000     4.70018    14.02581   360.00000     4.70019
     5.30000    15.21954   360.00000     4.69999    14.35257   360.00000     4.69999
     5.40000    15.51509   360.00000     4.69982    14.63396   360.00000     4.69982
     5.50000    15.86008   360.00000     4.69962    14.96263   360.00000     4.69961
     5.60000    16.15701   360.00000     4.69945    15.24569   360.00000     4.69943
     5.70000    16.50365   360.00000     4.69924    15.57634   360.00000     4.69922
     5.80000    16.80202   360.00000     4.69906    15.86113   360.00000     4.69903
     5.90000    17.15035   360.00000     4.69885    16.19383   360.00000     4.69881
     6.00000    17.49962   360.00000     4.69864    16.52767   360.00000     4.69859
     6.10000    17.84983   360.00000     4.69842    16.86265   360.00000     4.69836
     6.20000    18.20100   360.00000     4.69820    17.19881   360.00000     4.69813
     6.30000    18.50330   360.00000     4.69800    17.48841   360.00000     4.69792
     6.40000    18.85629   360.00000     4.69778    17.82680   360.00000     4.69768
     6.50000    19.21027   360.00000     4.69755    18.16642   360.00000     4.69744
     6.60000    19.56526   360.00000     4.69732    18.50728   360.00000     4.69720
     6.70000    19.92126   360.00000     4.69708    18.84940   360.00000     4.69695
     6.80000    20.27829   360.00000     4.69685    19.19281   360.00000     4.69669
     6.90000    20.68708   360.00000     4.69658    19.58635   360.00000     4.69640
     7.00000    21.04635   360.00000     4.69634    19.93257   360.00000     4.69614
     7.10000    21.40668   360.00000     4.69609    20.28012   360.00000     4.69588
     7.20000    21.76809   360.00000     4.69585    20.62903   360.00000     4.69561
     7.30000    22.18192   360.00000     4.69556    21.02893   360.00000     4.69530
     7.40000    22.54565   360.00000     4.69532    21.38079   360.00000     4.69503
     7.50000    22.96215   360.00000     4.69503    21.78412   360.00000     4.69472
     7.60000    23.32825   360.00000     4.69478    22.13900   360.00000     4.69444
     7.70000    23.74747   360.00000     4.69449    22.54582   360.00000     4.69412
     7.80000    24.16816   360.00000     4.69419    22.95453   360.00000     4.69379
     7.90000    24.59033   360.00000     4.69390    23.36516   360.00000     4.69347
     8.00000    25.01397   360.00000     4.69361    23.77772   360.00000     4.69314
     8.10000    25.43911   360.00000     4.69331    24.19224   360.00000     4.69280
     8.20000    25.86575   360.00000     4.69301    24.60872   360.00000     4.69247
     8.30000    26.29389   360.00000     4.69271    25.02719   360.00000     4.69213
     8.40000    26.72354   360.00000     4.69241    25.44767   360.00000     4.69179
     8.50000    27.20823   360.00000     4.69208    25.92264   360.00000     4.69140
     8.60000    27.64110   360.00000     4.69178    26.34742   360.00000     4.69106
     8.70000    28.12943   360.00000     4.69144    26.82727   360.00000     4.69067
     8.80000    28.61968   360.00000     4.69110    27.30972   360.00000     4.69028
     8.90000    29.11186   360.00000     4.69076    27.79479   360.00000     4.68989
     9.00000    29.60596   360.00000     4.69043    28.28248   360.00000     4.68949
     9.10000    30.10199   360.00000     4.69009    28.77282   360.00000     4.68910
     9.20000    30.59995   360.00000     4.68975    29.26580   360.00000     4.68870
     9.30000    31.15506   360.00000     4.68938    29.81625   360.00000     4.68826
     9.40000    31.71253   360.00000     4.68901    30.36998   360.00000     4.68782
     9.50000    32.27235   360.00000     4.68865    30.92699   360.00000     4.68738
     9.60000    32.83451   360.00000     4.68828    31.48729   360.00000     4.68695
     9.70000    33.39899   360.00000     4.68792    32.05086   360.00000     4.68651
     9.80000    34.02220   360.00000     4.68753    32.67418   360.00000     4.68603
     9.90000    34.64819   360.00000     4.68714    33.30144   360.00000     4.68556
    10.00000    35.27690   360.00000     4.68675    33.93261   360.00000     4.68509
    10.10000    35.96553   360.00000     4.68634    34.62526   360.00000     4.68458
    10.20000    36.65734   360.00000     4.68593    35.32249   360.00000     4.68407
    10.30000    37.35228   360.00000     4.68553    36.02427   360.00000     4.68358
    10.40000    38.10832   360.00000     4.68510    36.78927   360.00000     4.68305
    10.50000    38.86790   360.00000     4.68468    37.55946   360.00000     4.68253
    10.60000    39.68954   360.00000     4.68425    38.39429   360.00000     4.68198
    10.70000    40.51512   360.00000     4.68382    39.23490   360.00000     4.68145
    10.80000    41.40370   360.00000     4.68337    40.14156   360.00000     4.68089
    10.90000    42.35601   360.00000     4.68292    41.11534   360.00000     4.68032
    11.00000    43.31307   360.00000     4.68248    42.09605   360.00000     4.67977
    11.10000    44.39480   360.00000     4.68200    43.20684   360.00000     4.67918
    11.20000    45.54247   360.00000     4.68152    44.38787   360.00000     4.67859
    11.30000    46.75678   360.00000     4.68104    45.64001   360.00000     4.67800
    11.40000    48.03837   360.00000     4.68057    46.96406   360.00000     4.67743
    11.50000    49.51056   360.00000     4.68007    48.48774   360.00000     4.67683
    11.60000    51.11421   360.00000     4.67956    50.15012   360.00000     4.67625
    11.70000    52.91285   360.00000     4.67904    52.01704   360.00000     4.67569
    11.80000    54.97137   360.00000     4.67851    54.15550   360.00000     4.67515
    11.90000    57.35606   360.00000     4.67797    56.63325   360.00000     4.67464
    12.00000    60.19790   360.00000     4.67741    59.58374   360.00000     4.67420
    12.10000    63.69489   360.00000     4.67683    63.20660   360.00000     4.67384
    12.20000    68.11471   360.00000     4.67620    67.76656   360.00000     4.67360
    12.30000    73.99206   360.00000     4.67554    73.78990   360.00000     4.67349
    12.40000    83.83782   360.00000     4.67482    83.78294   360.00000     4.67347
    12.50000    90.00000   360.00000     4.67467    90.00000   360.00000     4.67345
    12.60000    90.00000   360.00000     4.67465    90.00000   360.00000     4.67343
    12.70000    90.00000   360.00000     4.67463    90.00000   360.00000     4.67341
    12.80000    90.00000   360.00000     4.67461    90.00000   360.00000     4.67339
    12.90000    90.00000   360.00000     4.67459    90.00000   360.00000     4.67337
    13.00000    90.00000   360.00000     4.67457    90.00000   360.00000     4.67334
    13.10000    90.00000   360.00000     4.67454    90.00000   360.00000     4.67332
    13.20000    90.00000   360.00000     4.67452    90.00000   360.00000     4.67330
    13.30000    90.00000   360.00000     4.67450    90.00000   360.00000     4.67328
    13.40000    90.00000   360.00000     4.67448    90.00000   360.00000     4.67326
    13.50000    90.00000   360.00000     4.67446    90.00000   360.00000     4.67323
    13.60000    90.00000   360.00000     4.67444    90.00000   360.00000     4.67321
    13.70000    90.00000   360.00000     4.67442    90.00000   360.00000     4.67319
    13.80000    90.00000   360.00000     4.67439    90.00000   360.00000     4.67317
    13.90000    90.00000   360.00000     4.67437    90.00000   360.00000     4.67314
    14.00000    90.00000   360.00000     4.67435    90.00000   360.00000     4.67312
    14.10000    90.00000   360.00000     4.67433    90.00000   360.00000     4.67310
    14.20000    90.00000   360.00000     4.67431    90.00000   360.00000     4.67308
    14.30000    90.00000   360.00000     4.67429    90.00000   360.00000     4.67306
    14.40000    90.00000   360.00000     4.67427    90.00000   360.00000     4.67303
    14.50000    90.00000   360.00000     4.67424    90.00000   360.00000     4.67301
    14.60000    90.00000   360.00000     4.67422    90.00000   360.00000     4.67299
    14.70000    90.00000   360.00000     4.67420    90.00000   360.00000     4.67297
    14.80000    90.00000   360.00000     4.67418    90.00000   360.00000     4.67294
    14.90000    90.00000   360.00000     4.67416    90.00000   360.00000     4.67292
    15.00000    90.00000   360.00000     4.67414    90.00000   360.00000     4.67290
    15.10000    90.00000   360.00000     4.67412    90.00000   360.00000     4.67288
    15.20000    90.00000   360.00000     4.67409    90.00000   360.00000     4.67285
    15.30000    90.00000   360.00000     4.67407    90.00000   360.00000     4.67283
    15.40000    90.00000   360.00000     4.67405    90.00000   360.00000     4.67281
    15.50000    90.00000   360.00000     4.67403    90.00000   360.00000     4.67279
    15.60000    90.00000   360.00000     4.67401    90.00000   360.00000     4.67277
    15.70000    90.00000   360.00000     4.67399    90.00000   360.00000     4.67274
    15.80000    90.00000   360.00000     4.67397    90.00000   360.00000     4.67272
    15.90000    90.00000   360.00000     4.67394    90.00000   360.00000     4.67270
    16.00000    90.00000   360.00000     4.67392    90.00000   360.00000     4.67268
    16.10000    90.00000   360.00000     4.67390    90.00000   360.00000     4.67265
    16.20000    90.00000   360.00000     4.67388    90.00000   360.00000     4.67263
    16.30000    90.00000   360.00000     4.67386    90.00000   360.00000     4.67261
    16.40000    90.00000   360.00000     4.67384    90.00000   360.00000     4.67259
    16.50000    90.00000   360.00000     4.67382    90.00000   360.00000     4.67257
    16.60000    90.00000   360.00000     4.67379    90.00000   360.00000     4.67254
    16.70000    90.00000   360.00000     4.67377    90.00000   360.00000     4.67252
    16.80000    90.00000   360.00000     4.67375    90.00000   360.00000     4.67250
    16.90000    90.00000   360.00000     4.67373    90.00000   360.00000     4.67248
    17.00000    90.00000   360.00000     4.67371    90.00000   360.00000     4.67245
    17.10000    90.00000   360.00000     4.67369    90.00000   360.00000     4.67243
    17.20000    90.00000   360.00000     4.67367    90.00000   360.00000     4.67241
    17.30000    90.00000   360.00000     4.67364    90.00000   360.00000     4.67239
    17.40000    90.00000   360.00000     4.67362    90.00000   360.00000     4.67236
    17.50000    90.00000   360.00000     4.67360    90.00000   360.00000     4.67234
    17.60000    90.00000   360.00000     4.67358    90.00000   360.00000     4.67232
    17.70000    90.00000   360.00000     4.67356    90.00000   360.00000     4.67230
    17.80000    90.00000   360.00000     4.67354    90.00000   360.00000     4.67228
    17.90000    90.00000   360.00000     4.67352    90.00000   360.00000     4.67225
    18.00000    90.00000   360.00000     4.67349    90.00000   360.00000     4.67223
    18.10000    90.00000   360.00000     4.67347    90.00000   360.00000     4.67221
    18.20000    90.00000   360.00000     4.67345    90.00000   360.00000     4.67219
    18.30000    90.00000   360.00000     4.67343    90.00000   360.00000     4.67216
    18.40000    90.00000   360.00000     4.67341    90.00000   360.00000     4.67214
    18.50000    90.00000   360.00000     4.67339    90.00000   360.00000     4.67212
    18.60000    90.00000   360.00000     4.67336    90.00000   360.00000     4.67210
    18.70000    90.00000   360.00000     4.67334    90.00000   360.00000     4.67207
    18.80000    90.00000   360.00000     4.67332    90.00000   360.00000     4.67205
    18.90000    90.00000   360.00000     4.67330    90.00000   360.00000     4.67203
    19.00000    90.00000   360.00000     4.67328    90.00000   360.00000     4.67201
    19.10000    90.00000   360.00000     4.67326    90.00000   360.00000     4.67198
    19.20000    90.00000   360.00000     4.67324    90.00000   360.00000     4.67196
    19.30000    90.00000   360.00000     4.67321    90.00000   360.00000     4.67194
    19.40000    90.00000   360.00000     4.67319    90.00000   360.00000     4.67192
    19.50000    90.00000   360.00000     4.67317    90.00000   360.00000     4.67190
    19.60000    90.00000   360.00000     4.67315    90.00000   360.00000     4.67187
    19.70000    90.00000   360.00000     4.67313    90.00000   360.00000     4.67185
    19.80000    90.00000   360.00000     4.67311    90.00000   360.00000     4.67183
    19.90000    90.00000   360.00000     4.67309    90.00000   360.00000     4.67181
    20.00000    90.00000   360.00000     4.67306    90.00000   360.00000     4.67178
    20.10000    90.00000   360.00000     4.67304    90.00000   360.00000     4.67176
    20.20000    90.00000   360.00000     4.67302    90.00000   360.00000     4.67174
    20.30000    90.00000   360.00000     4.67300    90.00000   360.00000     4.67172
    20.40000    90.00000   360.00000     4.67298    90.00000   360.00000     4.67169
    20.50000    90.00000   360.00000     4.67296    90.00000   360.00000     4.67167
    20.60000    90.00000   360.00000     4.67293    90.00000   360.00000     4.67165
    20.70000    90.00000   360.00000     4.67291    90.00000   360.00000     4.67163
    20.80000    90.00000   360.00000     4.67289    90.00000   360.00000     4.67160
    20.90000    90.00000   360.00000     4.67287    90.00000   360.00000     4.67158
    21.00000    90.00000   360.00000     4.67285    90.00000   360.00000     4.67156
    21.10000    90.00000   360.00000     4.67283    90.00000   360.00000     4.67154
    21.20000    90.00000   360.00000     4.67280    90.00000   360.00000     4.67151
    21.30000    90.00000   360.00000     4.67278    90.00000   360.00000     4.67149
    21.40000    90.00000   360.00000     4.67276    90.00000   360.00000     4.67147
    21.50000    90.00000   360.00000     4.67274    90.00000   360.00000     4.67145
    21.60000    90.00000   360.00000     4.67272    90.00000   360.00000     4.67142
    21.70000    90.00000   360.00000     4.67270    90.00000   360.00000     4.67140
    21.80000    90.00000   360.00000     4.67267    90.00000   360.00000     4.67138
    21.90000    90.00000   360.00000     4.67265    90.00000   360.00000     4.67136
    22.00000    90.00000   360.00000     4.67263    90.00000   360.00000     4.67133
    22.10000    90.00000   360.00000     4.67261    90.00000   360.00000     4.67131
    22.20000    90.00000   360.00000     4.67259    90.00000   360.00000     4.67129
    22.30000    90.00000   360.00000     4.67257    90.00000   360.00000     4.67127
    22.40000    90.00000   360.00000     4.67255    90.00000   360.00000     4.67124
    22.50000    90.00000   360.00000     4.67252    90.00000   360.00000     4.67122
    22.60000    90.00000   360.00000     4.67250    90.00000   360.00000     4.67120
    22.70000    90.00000   360.00000     4.67248    90.00000   360.00000     4.67118
    22.80000    90.00000   360.00000     4.67246    90.00000   360.00000     4.67115
    22.90000    90.00000   360.00000     4.67244    90.00000   360.00000     4.67113
    23.00000    90.00000   360.00000     4.67242    90.00000   360.00000     4.67111
    23.10000    90.00000   360.00000     4.67239    90.00000   360.00000     4.67109
    23.20000    90.00000   360.00000     4.67237    90.00000   360.00000     4.67106
    23.30000    90.00000   360.00000     4.67235    90.00000   360.00000     4.67104
    23.40000    90.00000   360.00000     4.67233    90.00000   360.00000     4.67102
    23.50000    90.00000   360.00000     4.67231    90.00000   360.00000     4.67100
    23.60000    90.00000   360.00000     4.67229    90.00000   360.00000     4.67097
    23.70000    90.00000   360.00000     4.67226    90.00000   360.00000     4.67095
    23.80000    90.00000   360.00000     4.67224    90.00000   360.00000     4.67093
    23.90000    90.00000   360.00000     4.67222    90.00000   360.00000     4.67091
    24.00000    90.00000   360.00000     4.67220    90.00000   360.00000     4.67088
    24.10000    90.00000   360.00000     4.67218    90.00000   360.00000     4.67086
    24.20000    90.00000   360.00000     4.67216    90.00000   360.00000     4.67084
    24.30000    90.00000   360.00000     4.67213    90.00000   360.00000     4.67082
    24.40000    90.00000   360.00000     4.67211    90.00000   360.00000     4.67079
    24.50000    90.00000   360.00000     4.67209    90.00000   360.00000     4.67077
    24.60000    90.00000   360.00000     4.67207    90.00000   360.00000     4.67075
    24.70000    90.00000   360.00000     4.67205    90.00000   360.00000     4.67073
    24.80000    90.00000   360.00000     4.67203    90.00000   360.00000     4.67070
    24.90000    90.00000   360.00000     4.67200    90.00000   360.00000     4.67068
    25.00000    90.00000   360.00000     4.67198    90.00000   360.00000     4.67066
    25.10000    90.00000   360.00000     4.67196    90.00000   360.00000     4.67064
    25.20000    90.00000   360.00000     4.67194    90.00000   360.00000     4.67061
    25.30000    90.00000   360.00000     4.67192    90.00000   360.00000     4.67059
    25.40000    90.00000   360.00000     4.67189    90.00000   360.00000     4.67057
    25.50000    90.00000   360.00000     4.67187    90.00000   360.00000     4.67055
    25.60000    90.00000   360.00000     4.67185    90.00000   360.00000     4.67052
    25.70000    90.00000   360.00000     4.67183    90.00000   360.00000     4.67050
    25.80000    90.00000   360.00000     4.67181    90.00000   360.00000     4.67048
    25.90000    90.00000   360.00000     4.67179    90.00000   360.00000     4.67046
    26.00000    90.00000   360.00000     4.67176    90.00000   360.00000     4.67043
    26.10000    90.00000   360.00000     4.67174    90.00000   360.00000     4.67041
    26.20000    90.00000   360.00000     4.67172    90.00000   360.00000     4.67039
    26.30000    90.00000   360.00000     4.67170    90.00000   360.00000     4.67037
    26.40000    90.00000   360.00000     4.67168    90.00000   360.00000     4.67034
    26.50000    90.00000   360.00000     4.67166    90.00000   360.00000     4.67032
    26.60000    90.00000   360.00000     4.67163    90.00000   360.00000     4.67030
    26.70000    90.00000   360.00000     4.67161    90.00000   360.00000     4.67028
    26.80000    90.00000   360.00000     4.67159    90.00000   360.00000     4.67025
    26.90000    90.00000   360.00000     4.67157    90.00000   360.00000     4.67023
    27.00000    90.00000   360.00000     4.67155    90.00000   360.00000     4.67021
    27.10000    90.00000   360.00000     4.67152    90.00000   360.00000     4.67019
    27.20000    90.00000   360.00000     4.67150    90.00000   360.00000     4.67016
    27.30000    90.00000   360.00000     4.67148    90.00000   360.00000     4.67014
    27.40000    90.00000   360.00000     4.67146    90.00000   360.00000     4.67012
    27.50000    90.00000   360.00000     4.67144    90.00000   360.00000     4.67009
    27.60000    90.00000   360.00000     4.67142    90.00000   360.00000     4.67007
    27.70000    90.00000   360.00000     4.67139    90.00000   360.00000     4.67005
    27.80000    90.00000   360.00000     4.67137    90.00000   360.00000     4.67003
    27.90000    90.00000   360.00000     4.67135    90.00000   360.00000     4.67000
    28.00000    90.00000   360.00000     4.67133    90.00000   360.00000     4.66998
    28.10000    90.00000   360.00000     4.67131    90.00000   360.00000     4.66996
    28.20000    90.00000   360.00000     4.67129    90.00000   360.00000     4.66994
    28.30000    90.00000   360.00000     4.67126    90.00000   360.00000     4.66991
    28.40000    90.00000   360.00000     4.67124    90.00000   360.00000     4.66989
    28.50000    90.00000   360.00000     4.67122    90.00000   360.00000     4.66987
    28.60000    90.00000   360.00000     4.67120    90.00000   360.00000     4.66985
    28.70000    90.00000   360.00000     4.67118    90.00000   360.00000     4.66982
    28.80000    90.00000   360.00000     4.67115    90.00000   360.00000     4.66980
    28.90000    90.00000   360.00000     4.67113    90.00000   360.00000     4.66978
    29.00000    90.00000   360.00000     4.67111    90.00000   360.00000     4.66976
    29.10000    90.00000   360.00000     4.67109    90.00000   360.00000     4.66973
    29.20000    90.00000   360.00000     4.67107    90.00000   360.00000     4.66971
    29.30000    90.00000   360.00000     4.67105    90.00000   360.00000     4.66969
    29.40000    90.00000   360.00000     4.67102    90.00000   360.00000     4.66966
    29.50000    90.00000   360.00000     4.67100    90.00000   360.00000     4.66964
    29.60000    90.00000   360.00000     4.67098    90.00000   360.00000     4.66962
    29.70000    90.00000   360.00000     4.67096    90.00000   360.00000     4.66960
    29.80000    90.00000   360.00000     4.67094    90.00000   360.00000     4.66957
    29.90000    90.00000   360.00000     4.67091    90.00000   360.00000     4.66955
    30.00000    90.00000   360.00000     4.67089    90.00000   360.00000     4.66953
    30.10000    90.00000   360.00000     4.67087    90.00000   360.00000     4.66951
    30.20000    90.00000   360.00000     4.67085    90.00000   360.00000     4.66948
    30.30000    90.00000   360.00000     4.67083    90.00000   360.00000     4.66946
    30.40000    90.00000   360.00000     4.67080    90.00000   360.00000     4.66944
    30.50000    90.00000   360.00000     4.67078    90.00000   360.00000     4.66941
    30.60000    90.00000   360.00000     4.67076    90.00000   360.00000     4.66939
    30.70000    90.00000   360.00000     4.67074    90.00000   360.00000     4.66937
    30.80000    90.00000   360.00000     4.67072    90.00000   360.00000     4.66935
    30.90000    90.00000   360.00000     4.67070    90.00000   360.00000     4.66932
    31.00000    90.00000   360.00000     4.67067    90.00000   360.00000     4.66930
    31.10000    90.00000   360.00000     4.67065    90.00000   360.00000     4.66928
    31.20000    90.00000   360.00000     4.67063    90.00000   360.00000     4.66926
    31.30000    90.00000   360.00000     4.67061    90.00000   360.00000     4.66923
    31.40000    90.00000   360.00000     4.67059    90.00000   360.00000     4.66921
    31.50000    90.00000   360.00000     4.67056    90.00000   360.00000     4.66919
    31.60000    90.00000   360.00000     4.67054    90.00000   360.00000     4.66916
    31.70000    90.00000   360.00000     4.67052    90.00000   360.00000     4.66914
    31.80000    90.00000   360.00000     4.67050    90.00000   360.00000     4.66912
    31.90000    90.00000   360.00000     4.67048    90.00000   360.00000     4.66910
    32.00000    90.00000   360.00000     4.67045    90.00000   360.00000     4.66907
    32.10000    90.00000   360.00000     4.67043    90.00000   360.00000     4.66905
    32.20000    90.00000   360.00000     4.67041    90.00000   360.00000     4.66903
    32.30000    90.00000   360.00000     4.67039    90.00000   360.00000     4.66901
    32.40000    90.00000   360.00000     4.67037    90.00000   360.00000     4.66898
    32.50000    90.00000   360.00000     4.67034    90.00000   360.00000     4.66896
    32.60000    90.00000   360.00000     4.67032    90.00000   360.00000     4.66894
    32.70000    90.00000   360.00000     4.67030    90.00000   360.00000     4.66891
    32.80000    90.00000   360.00000     4.67028    90.00000   360.00000     4.66889
    32.90000    90.00000   360.00000     4.67026    90.00000   360.00000     4.66887
    33.00000    90.00000   360.00000     4.67023    90.00000   360.00000     4.66885
    33.10000    90.00000   360.00000     4.67021    90.00000   360.00000     4.66882
    33.20000    90.00000   360.00000     4.67019    90.00000   360.00000     4.66880
    33.30000    90.00000   360.00000     4.67017    90.00000   360.00000     4.66878
    33.40000    90.00000   360.00000     4.67015    90.00000   360.00000     4.66875
    33.50000    90.00000   360.00000     4.67012    90.00000   360.00000     4.66873
    33.60000    90.00000   360.00000     4.67010    90.00000   360.00000     4.66871
    33.70000    90.00000   360.00000     4.67008    90.00000   360.00000     4.66869
    33.80000    90.00000   360.00000     4.67006    90.00000   360.00000     4.66866
    33.90000    90.00000   360.00000     4.67004    90.00000   360.00000     4.66864
    34.00000    90.00000   360.00000     4.67001    90.00000   360.00000     4.66862
    34.10000    90.00000   360.00000     4.66999    90.00000   360.00000     4.66860
    34.20000    90.00000   360.00000     4.66997    90.00000   360.00000     4.66857
    34.30000    90.00000   360.00000     4.66995    90.00000   360.00000     4.66855
    34.40000    90.00000   360.00000     4.66993    90.00000   360.00000     4.66853
    34.50000    90.00000   360.00000     4.66990    90.00000   360.00000     4.66850
    34.60000    90.00000   360.00000     4.66988    90.00000   360.00000     4.66848
    34.70000    90.00000   360.00000     4.66986    90.00000   360.00000     4.66846
    34.80000    90.00000   360.00000     4.66984    90.00000   360.00000     4.66844
    34.90000    90.00000   360.00000     4.66982    90.00000   360.00000     4.66841
    35.00000    90.00000   360.00000     4.66979    90.00000   360.00000     4.66839
    35.10000    90.00000   360.00000     4.66977    90.00000   360.00000     4.66837
    35.20000    90.00000   360.00000     4.66975    90.00000   360.00000     4.66834
    35.30000    90.00000   360.00000     4.66973    90.00000   360.00000     4.66832
    35.40000    90.00000   360.00000     4.66971    90.00000   360.00000     4.66830
    35.50000    90.00000   360.00000     4.66968    90.00000   360.00000     4.66828
    35.60000    90.00000   360.00000     4.66966    90.00000   360.00000     4.66825
    35.70000    90.00000   360.00000     4.66964    90.00000   360.00000     4.66823
    35.80000    90.00000   360.00000     4.66962    90.00000   360.00000     4.66821
    35.90000    90.00000   360.00000     4.66960    90.00000   360.00000     4.66818
    36.00000    90.00000   360.00000     4.66957    90.00000   360.00000     4.66816
    36.10000    90.00000   360.00000     4.66955    90.00000   360.00000     4.66814
    36.20000    90.00000   360.00000     4.66953    90.00000   360.00000     4.66812
    36.30000    90.00000   360.00000     4.66951    90.00000   360.00000     4.66809
    36.40000    90.00000   360.00000     4.66949    90.00000   360.00000     4.66807
    36.50000    90.00000   360.00000     4.66946    90.00000   360.00000     4.66805
    36.60000    90.00000   360.00000     4.66944    90.00000   360.00000     4.66802
    36.70000    90.00000   360.00000     4.66942    90.00000   360.00000     4.66800
    36.80000    90.00000   360.00000     4.66940    90.00000   360.00000     4.66798
    36.90000    90.00000   360.00000     4.66938    90.00000   360.00000     4.66796
    37.00000    90.00000   360.00000     4.66935    90.00000   360.00000     4.66793
    37.10000    90.00000   360.00000     4.66933    90.00000   360.00000     4.66791
    37.20000    90.00000   360.00000     4.66931    90.00000   360.00000     4.66789
    37.30000    90.00000   360.00000     4.66929    90.00000   360.00000     4.66786
    37.40000    90.00000   360.00000     4.66927    90.00000   360.00000     4.66784
    37.50000    90.00000   360.00000     4.66924    90.00000   360.00000     4.66782
    37.60000    90.00000   360.00000     4.66922    90.00000   360.00000     4.66779
    37.70000    90.00000   360.00000     4.66920    90.00000   360.00000     4.66777
    37.80000    90.00000   360.00000     4.66918    90.00000   360.00000     4.66775
    37.90000    90.00000   360.00000     4.66915    90.00000   360.00000     4.66773
    38.00000    90.00000   360.00000     4.66913    90.00000   360.00000     4.66770
    38.10000    90.00000   360.00000     4.66911    90.00000   360.00000     4.66768
    38.20000    90.00000   360.00000     4.66909    90.00000   360.00000     4.66766
    38.30000    90.00000   360.00000     4.66907    90.00000   360.00000     4.66763
    38.40000    90.00000   360.00000     4.66904    90.00000   360.00000     4.66761
    38.50000    90.00000   360.00000     4.66902    90.00000   360.00000     4.66759
    38.60000    90.00000   360.00000     4.66900    90.00000   360.00000     4.66757
    38.70000    90.00000   360.00000     4.66898    90.00000   360.00000     4.66754
    38.80000    90.00000   360.00000     4.66896    90.00000   360.00000     4.66752
    38.90000    90.00000   360.00000     4.66893    90.00000   360.00000     4.66750
    39.00000    90.00000   360.00000     4.66891    90.00000   360.00000     4.66747
    39.10000    90.00000   360.00000     4.66889    90.00000   360.00000     4.66745
    39.20000    90.00000   360.00000     4.66887    90.00000   360.00000     4.66743
    39.30000    90.00000   360.00000     4.66884    90.00000   360.00000     4.66740
    39.40000    90.00000   360.00000     4.66882    90.00000   360.00000     4.66738
    39.50000    90.00000   360.00000     4.66880    90.00000   360.00000     4.66736
    39.60000    90.00000   360.00000     4.66878    90.00000   360.00000     4.66734
    39.70000    90.00000   360.00000     4.66876    90.00000   360.00000     4.66731
    39.80000    90.00000   360.00000     4.66873    90.00000   360.00000     4.66729
    39.90000    90.00000   360.00000     4.66871    90.00000   360.00000     4.66727
    40.00000    90.00000   360.00000     4.66869    90.00000   360.00000     4.66724
