 # applied field (T), theta (degree), phi (degree), abs [muB/unitcell], abs [T]
       0.00000000      90.00000000      45.00000000      34.71224384       1.16835632
       0.10000000      90.00000000      45.00000000      34.71247347       1.16836405
       0.20000000      90.00000000      45.00000000      34.71270307       1.16837178
       0.30000000      90.00000000      45.00000000      34.71293266       1.16837951
       0.40000000      90.00000000      45.00000000      34.71316222       1.16838723
       0.50000000      90.00000000      45.00000000      34.71339177       1.16839496
       0.60000000      90.00000000      45.00000000      34.71362129       1.16840268
       0.70000000      90.00000000      45.00000000      34.71385078       1.16841041
       0.80000000      90.00000000      45.00000000      34.71408026       1.16841813
       0.90000000      90.00000000      45.00000000      34.71430972       1.16842585
       1.00000000      90.00000000      45.00000000      34.71453915       1.16843358
       1.10000000      90.00000000      45.00000000      34.71476856       1.16844130
       1.20000000      90.00000000      45.00000000      34.71499795       1.16844902
       1.30000000      90.00000000      45.00000000      34.71522732       1.16845674
       1.40000000      90.00000000      45.00000000      34.71545666       1.16846446
       1.50000000      90.00000000      45.00000000      34.71568599       1.16847218
       1.60000000      90.00000000      45.00000000      34.71591529       1.16847990
       1.70000000      90.00000000      45.00000000      34.71614457       1.16848761
       1.80000000      90.00000000      45.00000000      34.71637383       1.16849533
       1.90000000      90.00000000      45.00000000      34.71660307       1.16850305
       2.00000000      90.00000000      45.00000000      34.71683228       1.16851076
       2.10000000      90.00000000      45.00000000      34.71706148       1.16851847
       2.20000000      90.00000000      45.00000000      34.71729065       1.16852619
       2.30000000      90.00000000      45.00000000      34.71751980       1.16853390
       2.40000000      90.00000000      45.00000000      34.71774893       1.16854161
       2.50000000      90.00000000      45.00000000      34.71797804       1.16854932
       2.60000000      90.00000000      45.00000000      34.71820712       1.16855703
       2.70000000      90.00000000      45.00000000      34.71843619       1.16856474
       2.80000000      90.00000000      45.00000000      34.71866523       1.16857245
       2.90000000      90.00000000      45.00000000      34.71889425       1.16858016
       3.00000000      90.00000000      45.00000000      34.71912325       1.16858787
       3.10000000      90.00000000      45.00000000      34.71935223       1.16859558
       3.20000000      90.00000000      45.00000000      34.71958118       1.16860328
       3.30000000      90.00000000      45.00000000      34.71981012       1.16861099
       3.40000000      90.00000000      45.00000000      34.72003903       1.16861869
       3.50000000      90.00000000      45.00000000      34.72026792       1.16862640
       3.60000000      90.00000000      45.00000000      34.72049679       1.16863410
       3.70000000      90.00000000      45.00000000      34.72072564       1.16864180
       3.80000000      90.00000000      45.00000000      34.72095446       1.16864951
       3.90000000      90.00000000      45.00000000      34.72118327       1.16865721
       4.00000000      90.00000000      45.00000000      34.72141205       1.16866491
       4.10000000      90.00000000      45.00000000      34.72164082       1.16867261
       4.20000000      90.00000000      45.00000000      34.72186956       1.16868031
       4.30000000      90.00000000      45.00000000      34.72209828       1.16868800
       4.40000000      90.00000000      45.00000000      34.72232697       1.16869570
       4.50000000      90.00000000      45.00000000      34.72255565       1.16870340
       4.60000000      90.00000000      45.00000000      34.72278430       1.16871110
       4.70000000      90.00000000      45.00000000      34.72301294       1.16871879
       4.80000000      90.00000000      45.00000000      34.72324155       1.16872649
       4.90000000      90.00000000      45.00000000      34.72347014       1.16873418
       5.00000000      90.00000000      45.00000000      34.72369871       1.16874187
       5.10000000      90.00000000      45.00000000      34.72392725       1.16874957
       5.20000000      90.00000000      45.00000000      34.72415578       1.16875726
       5.30000000      90.00000000      45.00000000      34.72438428       1.16876495
       5.40000000      90.00000000      45.00000000      34.72461277       1.16877264
       5.50000000      90.00000000      45.00000000      34.72484123       1.16878033
       5.60000000      90.00000000      45.00000000      34.72506967       1.16878802
       5.70000000      90.00000000      45.00000000      34.72529809       1.16879571
       5.80000000      90.00000000      45.00000000      34.72552649       1.16880339
       5.90000000      90.00000000      45.00000000      34.72575486       1.16881108
       6.00000000      90.00000000      45.00000000      34.72598322       1.16881877
       6.10000000      90.00000000      45.00000000      34.72621155       1.16882645
       6.20000000      90.00000000      45.00000000      34.72643986       1.16883414
       6.30000000      90.00000000      45.00000000      34.72666815       1.16884182
       6.40000000      90.00000000      45.00000000      34.72689642       1.16884950
       6.50000000      90.00000000      45.00000000      34.72712467       1.16885718
       6.60000000      90.00000000      45.00000000      34.72735290       1.16886487
       6.70000000      90.00000000      45.00000000      34.72758110       1.16887255
       6.80000000      90.00000000      45.00000000      34.72780929       1.16888023
       6.90000000      90.00000000      45.00000000      34.72803745       1.16888791
       7.00000000      90.00000000      45.00000000      34.72826559       1.16889559
       7.10000000      90.00000000      45.00000000      34.72849371       1.16890326
       7.20000000      90.00000000      45.00000000      34.72872181       1.16891094
       7.30000000      90.00000000      45.00000000      34.72894989       1.16891862
       7.40000000      90.00000000      45.00000000      34.72917794       1.16892629
       7.50000000      90.00000000      45.00000000      34.72940598       1.16893397
       7.60000000      90.00000000      45.00000000      34.72963399       1.16894164
       7.70000000      90.00000000      45.00000000      34.72986198       1.16894932
       7.80000000      90.00000000      45.00000000      34.73008996       1.16895699
       7.90000000      90.00000000      45.00000000      34.73031791       1.16896466
       8.00000000      90.00000000      45.00000000      34.73054584       1.16897234
       8.10000000      90.00000000      45.00000000      34.73077374       1.16898001
       8.20000000      90.00000000      45.00000000      34.73100163       1.16898768
       8.30000000      90.00000000      45.00000000      34.73122950       1.16899535
       8.40000000      90.00000000      45.00000000      34.73145734       1.16900302
       8.50000000      90.00000000      45.00000000      34.73168516       1.16901068
       8.60000000      90.00000000      45.00000000      34.73191297       1.16901835
       8.70000000      90.00000000      45.00000000      34.73214075       1.16902602
       8.80000000      90.00000000      45.00000000      34.73236851       1.16903368
       8.90000000      90.00000000      45.00000000      34.73259624       1.16904135
       9.00000000      90.00000000      45.00000000      34.73282396       1.16904901
       9.10000000      90.00000000      45.00000000      34.73305166       1.16905668
       9.20000000      90.00000000      45.00000000      34.73327933       1.16906434
       9.30000000      90.00000000      45.00000000      34.73350699       1.16907200
       9.40000000      90.00000000      45.00000000      34.73373462       1.16907966
       9.50000000      90.00000000      45.00000000      34.73396223       1.16908733
       9.60000000      90.00000000      45.00000000      34.73418982       1.16909499
       9.70000000      90.00000000      45.00000000      34.73441739       1.16910265
       9.80000000      90.00000000      45.00000000      34.73464494       1.16911030
       9.90000000      90.00000000      45.00000000      34.73487247       1.16911796
      10.00000000      90.00000000      45.00000000      34.73509998       1.16912562
      10.10000000      90.00000000      45.00000000      34.73532746       1.16913328
      10.20000000      90.00000000      45.00000000      34.73555493       1.16914093
      10.30000000      90.00000000      45.00000000      34.73578237       1.16914859
      10.40000000      90.00000000      45.00000000      34.73600979       1.16915624
      10.50000000      90.00000000      45.00000000      34.73623720       1.16916390
      10.60000000      90.00000000      45.00000000      34.73646458       1.16917155
      10.70000000      90.00000000      45.00000000      34.73669194       1.16917920
      10.80000000      90.00000000      45.00000000      34.73691928       1.16918685
      10.90000000      90.00000000      45.00000000      34.73714659       1.16919451
      11.00000000      90.00000000      45.00000000      34.73737389       1.16920216
      11.10000000      90.00000000      45.00000000      34.73760117       1.16920981
      11.20000000      90.00000000      45.00000000      34.73782842       1.16921746
      11.30000000      90.00000000      45.00000000      34.73805566       1.16922510
      11.40000000      90.00000000      45.00000000      34.73828287       1.16923275
      11.50000000      90.00000000      45.00000000      34.73851006       1.16924040
      11.60000000      90.00000000      45.00000000      34.73873723       1.16924804
      11.70000000      90.00000000      45.00000000      34.73896438       1.16925569
      11.80000000      90.00000000      45.00000000      34.73919151       1.16926333
      11.90000000      90.00000000      45.00000000      34.73941862       1.16927098
      12.00000000      90.00000000      45.00000000      34.73964571       1.16927862
      12.10000000      90.00000000      45.00000000      34.73987278       1.16928626
      12.20000000      90.00000000      45.00000000      34.74009982       1.16929391
      12.30000000      90.00000000      45.00000000      34.74032685       1.16930155
      12.40000000      90.00000000      45.00000000      34.74055385       1.16930919
      12.50000000      90.00000000      45.00000000      34.74078084       1.16931683
      12.60000000      90.00000000      45.00000000      34.74100780       1.16932447
      12.70000000      90.00000000      45.00000000      34.74123474       1.16933211
      12.80000000      90.00000000      45.00000000      34.74146166       1.16933974
      12.90000000      90.00000000      45.00000000      34.74168856       1.16934738
      13.00000000      90.00000000      45.00000000      34.74191544       1.16935502
      13.10000000      90.00000000      45.00000000      34.74214230       1.16936265
      13.20000000      90.00000000      45.00000000      34.74236914       1.16937029
      13.30000000      90.00000000      45.00000000      34.74259595       1.16937792
      13.40000000      90.00000000      45.00000000      34.74282275       1.16938556
      13.50000000      90.00000000      45.00000000      34.74304953       1.16939319
      13.60000000      90.00000000      45.00000000      34.74327628       1.16940082
      13.70000000      90.00000000      45.00000000      34.74350302       1.16940845
      13.80000000      90.00000000      45.00000000      34.74372973       1.16941608
      13.90000000      90.00000000      45.00000000      34.74395642       1.16942371
      14.00000000      90.00000000      45.00000000      34.74418309       1.16943134
      14.10000000      90.00000000      45.00000000      34.74440975       1.16943897
      14.20000000      90.00000000      45.00000000      34.74463638       1.16944660
      14.30000000      90.00000000      45.00000000      34.74486299       1.16945423
      14.40000000      90.00000000      45.00000000      34.74508958       1.16946185
      14.50000000      90.00000000      45.00000000      34.74531614       1.16946948
      14.60000000      90.00000000      45.00000000      34.74554269       1.16947710
      14.70000000      90.00000000      45.00000000      34.74576922       1.16948473
      14.80000000      90.00000000      45.00000000      34.74599573       1.16949235
      14.90000000      90.00000000      45.00000000      34.74622221       1.16949998
      15.00000000      90.00000000      45.00000000      34.74644868       1.16950760
      15.10000000      90.00000000      45.00000000      34.74667512       1.16951522
      15.20000000      90.00000000      45.00000000      34.74690155       1.16952284
      15.30000000      90.00000000      45.00000000      34.74712795       1.16953046
      15.40000000      90.00000000      45.00000000      34.74735433       1.16953808
      15.50000000      90.00000000      45.00000000      34.74758070       1.16954570
      15.60000000      90.00000000      45.00000000      34.74780704       1.16955332
      15.70000000      90.00000000      45.00000000      34.74803336       1.16956094
      15.80000000      90.00000000      45.00000000      34.74825966       1.16956855
      15.90000000      90.00000000      45.00000000      34.74848594       1.16957617
      16.00000000      90.00000000      45.00000000      34.74871220       1.16958379
      16.10000000      90.00000000      45.00000000      34.74893844       1.16959140
      16.20000000      90.00000000      45.00000000      34.74916466       1.16959901
      16.30000000      90.00000000      45.00000000      34.74939085       1.16960663
      16.40000000      90.00000000      45.00000000      34.74961703       1.16961424
      16.50000000      90.00000000      45.00000000      34.74984319       1.16962185
      16.60000000      90.00000000      45.00000000      34.75006933       1.16962946
      16.70000000      90.00000000      45.00000000      34.75029544       1.16963707
      16.80000000      90.00000000      45.00000000      34.75052154       1.16964468
      16.90000000      90.00000000      45.00000000      34.75074761       1.16965229
      17.00000000      90.00000000      45.00000000      34.75097367       1.16965990
      17.10000000      90.00000000      45.00000000      34.75119970       1.16966751
      17.20000000      90.00000000      45.00000000      34.75142571       1.16967512
      17.30000000      90.00000000      45.00000000      34.75165171       1.16968272
      17.40000000      90.00000000      45.00000000      34.75187768       1.16969033
      17.50000000      90.00000000      45.00000000      34.75210363       1.16969794
      17.60000000      90.00000000      45.00000000      34.75232957       1.16970554
      17.70000000      90.00000000      45.00000000      34.75255548       1.16971314
      17.80000000      90.00000000      45.00000000      34.75278137       1.16972075
      17.90000000      90.00000000      45.00000000      34.75300724       1.16972835
      18.00000000      90.00000000      45.00000000      34.75323309       1.16973595
      18.10000000      90.00000000      45.00000000      34.75345892       1.16974355
      18.20000000      90.00000000      45.00000000      34.75368473       1.16975115
      18.30000000      90.00000000      45.00000000      34.75391052       1.16975875
      18.40000000      90.00000000      45.00000000      34.75413629       1.16976635
      18.50000000      90.00000000      45.00000000      34.75436204       1.16977395
      18.60000000      90.00000000      45.00000000      34.75458776       1.16978155
      18.70000000      90.00000000      45.00000000      34.75481347       1.16978914
      18.80000000      90.00000000      45.00000000      34.75503916       1.16979674
      18.90000000      90.00000000      45.00000000      34.75526483       1.16980434
      19.00000000      90.00000000      45.00000000      34.75549047       1.16981193
      19.10000000      90.00000000      45.00000000      34.75571610       1.16981952
      19.20000000      90.00000000      45.00000000      34.75594171       1.16982712
      19.30000000      90.00000000      45.00000000      34.75616729       1.16983471
      19.40000000      90.00000000      45.00000000      34.75639286       1.16984230
      19.50000000      90.00000000      45.00000000      34.75661841       1.16984989
      19.60000000      90.00000000      45.00000000      34.75684393       1.16985749
      19.70000000      90.00000000      45.00000000      34.75706944       1.16986508
      19.80000000      90.00000000      45.00000000      34.75729492       1.16987267
      19.90000000      90.00000000      45.00000000      34.75752039       1.16988025
      20.00000000      90.00000000      45.00000000      34.75774583       1.16988784
      20.10000000      90.00000000      45.00000000      34.75797126       1.16989543
      20.20000000      90.00000000      45.00000000      34.75819666       1.16990302
      20.30000000      90.00000000      45.00000000      34.75842204       1.16991060
      20.40000000      90.00000000      45.00000000      34.75864741       1.16991819
      20.50000000      90.00000000      45.00000000      34.75887275       1.16992577
      20.60000000      90.00000000      45.00000000      34.75909807       1.16993336
      20.70000000      90.00000000      45.00000000      34.75932338       1.16994094
      20.80000000      90.00000000      45.00000000      34.75954866       1.16994852
      20.90000000      90.00000000      45.00000000      34.75977392       1.16995610
      21.00000000      90.00000000      45.00000000      34.75999917       1.16996369
      21.10000000      90.00000000      45.00000000      34.76022439       1.16997127
      21.20000000      90.00000000      45.00000000      34.76044959       1.16997885
      21.30000000      90.00000000      45.00000000      34.76067477       1.16998643
      21.40000000      90.00000000      45.00000000      34.76089994       1.16999400
      21.50000000      90.00000000      45.00000000      34.76112508       1.17000158
      21.60000000      90.00000000      45.00000000      34.76135020       1.17000916
      21.70000000      90.00000000      45.00000000      34.76157530       1.17001674
      21.80000000      90.00000000      45.00000000      34.76180038       1.17002431
      21.90000000      90.00000000      45.00000000      34.76202545       1.17003189
      22.00000000      90.00000000      45.00000000      34.76225049       1.17003946
      22.10000000      90.00000000      45.00000000      34.76247551       1.17004704
      22.20000000      90.00000000      45.00000000      34.76270051       1.17005461
      22.30000000      90.00000000      45.00000000      34.76292549       1.17006218
      22.40000000      90.00000000      45.00000000      34.76315046       1.17006975
      22.50000000      90.00000000      45.00000000      34.76337540       1.17007732
      22.60000000      90.00000000      45.00000000      34.76360032       1.17008489
      22.70000000      90.00000000      45.00000000      34.76382522       1.17009246
      22.80000000      90.00000000      45.00000000      34.76405010       1.17010003
      22.90000000      90.00000000      45.00000000      34.76427497       1.17010760
      23.00000000      90.00000000      45.00000000      34.76449981       1.17011517
      23.10000000      90.00000000      45.00000000      34.76472463       1.17012274
      23.20000000      90.00000000      45.00000000      34.76494943       1.17013030
      23.30000000      90.00000000      45.00000000      34.76517421       1.17013787
      23.40000000      90.00000000      45.00000000      34.76539897       1.17014543
      23.50000000      90.00000000      45.00000000      34.76562372       1.17015300
      23.60000000      90.00000000      45.00000000      34.76584844       1.17016056
      23.70000000      90.00000000      45.00000000      34.76607314       1.17016813
      23.80000000      90.00000000      45.00000000      34.76629782       1.17017569
      23.90000000      90.00000000      45.00000000      34.76652249       1.17018325
      24.00000000      90.00000000      45.00000000      34.76674713       1.17019081
      24.10000000      90.00000000      45.00000000      34.76697175       1.17019837
      24.20000000      90.00000000      45.00000000      34.76719635       1.17020593
      24.30000000      90.00000000      45.00000000      34.76742094       1.17021349
      24.40000000      90.00000000      45.00000000      34.76764550       1.17022105
      24.50000000      90.00000000      45.00000000      34.76787004       1.17022861
      24.60000000      90.00000000      45.00000000      34.76809457       1.17023616
      24.70000000      90.00000000      45.00000000      34.76831907       1.17024372
      24.80000000      90.00000000      45.00000000      34.76854355       1.17025128
      24.90000000      90.00000000      45.00000000      34.76876802       1.17025883
      25.00000000      90.00000000      45.00000000      34.76899246       1.17026638
      25.10000000      90.00000000      45.00000000      34.76921689       1.17027394
      25.20000000      90.00000000      45.00000000      34.76944129       1.17028149
      25.30000000      90.00000000      45.00000000      34.76966568       1.17028904
      25.40000000      90.00000000      45.00000000      34.76989004       1.17029660
      25.50000000      90.00000000      45.00000000      34.77011439       1.17030415
      25.60000000      90.00000000      45.00000000      34.77033871       1.17031170
      25.70000000      90.00000000      45.00000000      34.77056302       1.17031925
      25.80000000      90.00000000      45.00000000      34.77078730       1.17032680
      25.90000000      90.00000000      45.00000000      34.77101157       1.17033434
      26.00000000      90.00000000      45.00000000      34.77123582       1.17034189
      26.10000000      90.00000000      45.00000000      34.77146004       1.17034944
      26.20000000      90.00000000      45.00000000      34.77168425       1.17035699
      26.30000000      90.00000000      45.00000000      34.77190844       1.17036453
      26.40000000      90.00000000      45.00000000      34.77213261       1.17037208
      26.50000000      90.00000000      45.00000000      34.77235675       1.17037962
      26.60000000      90.00000000      45.00000000      34.77258088       1.17038717
      26.70000000      90.00000000      45.00000000      34.77280499       1.17039471
      26.80000000      90.00000000      45.00000000      34.77302908       1.17040225
      26.90000000      90.00000000      45.00000000      34.77325315       1.17040979
      27.00000000      90.00000000      45.00000000      34.77347720       1.17041733
      27.10000000      90.00000000      45.00000000      34.77370123       1.17042487
      27.20000000      90.00000000      45.00000000      34.77392524       1.17043241
      27.30000000      90.00000000      45.00000000      34.77414923       1.17043995
      27.40000000      90.00000000      45.00000000      34.77437320       1.17044749
      27.50000000      90.00000000      45.00000000      34.77459715       1.17045503
      27.60000000      90.00000000      45.00000000      34.77482109       1.17046257
      27.70000000      90.00000000      45.00000000      34.77504500       1.17047010
      27.80000000      90.00000000      45.00000000      34.77526889       1.17047764
      27.90000000      90.00000000      45.00000000      34.77549276       1.17048517
      28.00000000      90.00000000      45.00000000      34.77571662       1.17049271
      28.10000000      90.00000000      45.00000000      34.77594045       1.17050024
      28.20000000      90.00000000      45.00000000      34.77616427       1.17050778
      28.30000000      90.00000000      45.00000000      34.77638806       1.17051531
      28.40000000      90.00000000      45.00000000      34.77661184       1.17052284
      28.50000000      90.00000000      45.00000000      34.77683559       1.17053037
      28.60000000      90.00000000      45.00000000      34.77705933       1.17053790
      28.70000000      90.00000000      45.00000000      34.77728305       1.17054543
      28.80000000      90.00000000      45.00000000      34.77750675       1.17055296
      28.90000000      90.00000000      45.00000000      34.77773042       1.17056049
      29.00000000      90.00000000      45.00000000      34.77795408       1.17056802
      29.10000000      90.00000000      45.00000000      34.77817772       1.17057555
      29.20000000      90.00000000      45.00000000      34.77840134       1.17058307
      29.30000000      90.00000000      45.00000000      34.77862494       1.17059060
      29.40000000      90.00000000      45.00000000      34.77884852       1.17059812
      29.50000000      90.00000000      45.00000000      34.77907208       1.17060565
      29.60000000      90.00000000      45.00000000      34.77929562       1.17061317
      29.70000000      90.00000000      45.00000000      34.77951915       1.17062070
      29.80000000      90.00000000      45.00000000      34.77974265       1.17062822
      29.90000000      90.00000000      45.00000000      34.77996613       1.17063574
      30.00000000      90.00000000      45.00000000      34.78018960       1.17064326
      30.10000000      90.00000000      45.00000000      34.78041304       1.17065078
      30.20000000      90.00000000      45.00000000      34.78063647       1.17065830
      30.30000000      90.00000000      45.00000000      34.78085987       1.17066582
      30.40000000      90.00000000      45.00000000      34.78108326       1.17067334
      30.50000000      90.00000000      45.00000000      34.78130663       1.17068086
      30.60000000      90.00000000      45.00000000      34.78152998       1.17068838
      30.70000000      90.00000000      45.00000000      34.78175331       1.17069589
      30.80000000      90.00000000      45.00000000      34.78197662       1.17070341
      30.90000000      90.00000000      45.00000000      34.78219991       1.17071093
      31.00000000      90.00000000      45.00000000      34.78242318       1.17071844
      31.10000000      90.00000000      45.00000000      34.78264643       1.17072595
      31.20000000      90.00000000      45.00000000      34.78286966       1.17073347
      31.30000000      90.00000000      45.00000000      34.78309287       1.17074098
      31.40000000      90.00000000      45.00000000      34.78331607       1.17074849
      31.50000000      90.00000000      45.00000000      34.78353924       1.17075601
      31.60000000      90.00000000      45.00000000      34.78376240       1.17076352
      31.70000000      90.00000000      45.00000000      34.78398553       1.17077103
      31.80000000      90.00000000      45.00000000      34.78420865       1.17077854
      31.90000000      90.00000000      45.00000000      34.78443174       1.17078605
      32.00000000      90.00000000      45.00000000      34.78465482       1.17079355
      32.10000000      90.00000000      45.00000000      34.78487788       1.17080106
      32.20000000      90.00000000      45.00000000      34.78510092       1.17080857
      32.30000000      90.00000000      45.00000000      34.78532394       1.17081608
      32.40000000      90.00000000      45.00000000      34.78554694       1.17082358
      32.50000000      90.00000000      45.00000000      34.78576993       1.17083109
      32.60000000      90.00000000      45.00000000      34.78599289       1.17083859
      32.70000000      90.00000000      45.00000000      34.78621583       1.17084609
      32.80000000      90.00000000      45.00000000      34.78643876       1.17085360
      32.90000000      90.00000000      45.00000000      34.78666166       1.17086110
      33.00000000      90.00000000      45.00000000      34.78688455       1.17086860
      33.10000000      90.00000000      45.00000000      34.78710741       1.17087610
      33.20000000      90.00000000      45.00000000      34.78733026       1.17088360
      33.30000000      90.00000000      45.00000000      34.78755309       1.17089110
      33.40000000      90.00000000      45.00000000      34.78777590       1.17089860
      33.50000000      90.00000000      45.00000000      34.78799869       1.17090610
      33.60000000      90.00000000      45.00000000      34.78822146       1.17091360
      33.70000000      90.00000000      45.00000000      34.78844422       1.17092110
      33.80000000      90.00000000      45.00000000      34.78866695       1.17092860
      33.90000000      90.00000000      45.00000000      34.78888966       1.17093609
      34.00000000      90.00000000      45.00000000      34.78911236       1.17094359
      34.10000000      90.00000000      45.00000000      34.78933503       1.17095108
      34.20000000      90.00000000      45.00000000      34.78955769       1.17095858
      34.30000000      90.00000000      45.00000000      34.78978033       1.17096607
      34.40000000      90.00000000      45.00000000      34.79000295       1.17097356
      34.50000000      90.00000000      45.00000000      34.79022555       1.17098106
      34.60000000      90.00000000      45.00000000      34.79044813       1.17098855
      34.70000000      90.00000000      45.00000000      34.79067069       1.17099604
      34.80000000      90.00000000      45.00000000      34.79089323       1.17100353
      34.90000000      90.00000000      45.00000000      34.79111576       1.17101102
      35.00000000      90.00000000      45.00000000      34.79133826       1.17101851
      35.10000000      90.00000000      45.00000000      34.79156075       1.17102600
      35.20000000      90.00000000      45.00000000      34.79178321       1.17103348
      35.30000000      90.00000000      45.00000000      34.79200566       1.17104097
      35.40000000      90.00000000      45.00000000      34.79222809       1.17104846
      35.50000000      90.00000000      45.00000000      34.79245050       1.17105594
      35.60000000      90.00000000      45.00000000      34.79267289       1.17106343
      35.70000000      90.00000000      45.00000000      34.79289526       1.17107091
      35.80000000      90.00000000      45.00000000      34.79311762       1.17107840
      35.90000000      90.00000000      45.00000000      34.79333995       1.17108588
      36.00000000      90.00000000      45.00000000      34.79356227       1.17109336
      36.10000000      90.00000000      45.00000000      34.79378456       1.17110085
      36.20000000      90.00000000      45.00000000      34.79400684       1.17110833
      36.30000000      90.00000000      45.00000000      34.79422910       1.17111581
      36.40000000      90.00000000      45.00000000      34.79445134       1.17112329
      36.50000000      90.00000000      45.00000000      34.79467356       1.17113077
      36.60000000      90.00000000      45.00000000      34.79489576       1.17113825
      36.70000000      90.00000000      45.00000000      34.79511795       1.17114573
      36.80000000      90.00000000      45.00000000      34.79534011       1.17115320
      36.90000000      90.00000000      45.00000000      34.79556226       1.17116068
      37.00000000      90.00000000      45.00000000      34.79578438       1.17116816
      37.10000000      90.00000000      45.00000000      34.79600649       1.17117563
      37.20000000      90.00000000      45.00000000      34.79622858       1.17118311
      37.30000000      90.00000000      45.00000000      34.79645065       1.17119058
      37.40000000      90.00000000      45.00000000      34.79667270       1.17119806
      37.50000000      90.00000000      45.00000000      34.79689474       1.17120553
      37.60000000      90.00000000      45.00000000      34.79711675       1.17121300
      37.70000000      90.00000000      45.00000000      34.79733875       1.17122047
      37.80000000      90.00000000      45.00000000      34.79756072       1.17122794
      37.90000000      90.00000000      45.00000000      34.79778268       1.17123542
      38.00000000      90.00000000      45.00000000      34.79800462       1.17124289
      38.10000000      90.00000000      45.00000000      34.79822654       1.17125036
      38.20000000      90.00000000      45.00000000      34.79844844       1.17125782
      38.30000000      90.00000000      45.00000000      34.79867032       1.17126529
      38.40000000      90.00000000      45.00000000      34.79889219       1.17127276
      38.50000000      90.00000000      45.00000000      34.79911403       1.17128023
      38.60000000      90.00000000      45.00000000      34.79933586       1.17128769
      38.70000000      90.00000000      45.00000000      34.79955767       1.17129516
      38.80000000      90.00000000      45.00000000      34.79977946       1.17130262
      38.90000000      90.00000000      45.00000000      34.80000123       1.17131009
      39.00000000      90.00000000      45.00000000      34.80022298       1.17131755
      39.10000000      90.00000000      45.00000000      34.80044471       1.17132502
      39.20000000      90.00000000      45.00000000      34.80066643       1.17133248
      39.30000000      90.00000000      45.00000000      34.80088813       1.17133994
      39.40000000      90.00000000      45.00000000      34.80110980       1.17134740
      39.50000000      90.00000000      45.00000000      34.80133146       1.17135486
      39.60000000      90.00000000      45.00000000      34.80155310       1.17136232
      39.70000000      90.00000000      45.00000000      34.80177472       1.17136978
      39.80000000      90.00000000      45.00000000      34.80199633       1.17137724
      39.90000000      90.00000000      45.00000000      34.80221791       1.17138470
      40.00000000      90.00000000      45.00000000      34.80243948       1.17139216
