 # applied field (T), theta (degree), phi (degree), abs [muB/unitcell], abs [T]
       0.00000000       0.00000000       0.00000000      37.27707153       1.25468415
       0.10000000       1.08667669     360.00000000      37.27703610       1.25468296
       0.20000000       2.17336024     360.00000000      37.27692994       1.25467938
       0.30000000       3.26005748     360.00000000      37.27675341       1.25467344
       0.40000000       4.34677519     360.00000000      37.27650712       1.25466515
       0.50000000       5.43352006     360.00000000      37.27619191       1.25465454
       0.60000000       6.52029868     360.00000000      37.27580886       1.25464165
       0.70000000       7.60711750     360.00000000      37.27535928       1.25462652
       0.80000000       8.75115146     360.00000000      37.27481384       1.25460816
       0.90000000       9.83807239     360.00000000      37.27423248       1.25458859
       1.00000000      10.98222735     360.00000000      37.27355194       1.25456569
       1.10000000      12.12645431     360.00000000      37.27280563       1.25454057
       1.20000000      13.27075957     360.00000000      37.27199630       1.25451333
       1.30000000      14.41514908     360.00000000      37.27112695       1.25448406
       1.40000000      15.61682132     360.00000000      37.27014962       1.25445117
       1.50000000      16.81859900     360.00000000      37.26911304       1.25441628
       1.60000000      18.02048768     360.00000000      37.26802132       1.25437953
       1.70000000      19.22249238     360.00000000      37.26687877       1.25434108
       1.80000000      20.48183360     360.00000000      37.26562795       1.25429898
       1.90000000      21.74131208     360.00000000      37.26433105       1.25425533
       2.00000000      23.05816130     360.00000000      37.26292731       1.25420808
       2.10000000      24.37516887     360.00000000      37.26148497       1.25415953
       2.20000000      25.74958207     360.00000000      37.25994091       1.25410756
       2.30000000      27.12417345     360.00000000      37.25836864       1.25405464
       2.40000000      28.55620463     360.00000000      37.25670371       1.25399860
       2.50000000      30.04570021     360.00000000      37.25495141       1.25393962
       2.60000000      31.53540687     360.00000000      37.25319162       1.25388039
       2.70000000      33.13989462     360.00000000      37.25128768       1.25381631
       2.80000000      34.80191704     360.00000000      37.24932283       1.25375017
       2.90000000      36.52149481     360.00000000      37.24730975       1.25368242
       3.00000000      38.35596044     360.00000000      37.24519258       1.25361116
       3.10000000      40.24803344     360.00000000      37.24306112       1.25353942
       3.20000000      42.25505779     360.00000000      37.24086787       1.25346559
       3.30000000      44.43440934     360.00000000      37.23857746       1.25338850
       3.40000000      46.78614135     360.00000000      37.23623173       1.25330955
       3.50000000      49.36765580     360.00000000      37.23382303       1.25322848
       3.60000000      52.23637237     360.00000000      37.23136797       1.25314584
       3.70000000      55.50709407     360.00000000      37.22886713       1.25306167
       3.80000000      59.35202421     360.00000000      37.22634112       1.25297665
       3.90000000      64.11553472     360.00000000      37.22381556       1.25289164
       4.00000000      70.65849888     360.00000000      37.22133537       1.25280816
       4.10000000      83.91645614     360.00000000      37.21899193       1.25272929
       4.20000000      90.00000000     360.00000000      37.21899885       1.25272952
       4.30000000      90.00000000     360.00000000      37.21925160       1.25273803
       4.40000000      90.00000000     360.00000000      37.21950432       1.25274653
       4.50000000      90.00000000     360.00000000      37.21975702       1.25275504
       4.60000000      90.00000000     360.00000000      37.22000969       1.25276354
       4.70000000      90.00000000     360.00000000      37.22026235       1.25277205
       4.80000000      90.00000000     360.00000000      37.22051498       1.25278055
       4.90000000      90.00000000     360.00000000      37.22076759       1.25278905
       5.00000000      90.00000000     360.00000000      37.22102018       1.25279755
       5.10000000      90.00000000     360.00000000      37.22127275       1.25280606
       5.20000000      90.00000000     360.00000000      37.22152530       1.25281456
       5.30000000      90.00000000     360.00000000      37.22177782       1.25282306
       5.40000000      90.00000000     360.00000000      37.22203032       1.25283155
       5.50000000      90.00000000     360.00000000      37.22228280       1.25284005
       5.60000000      90.00000000     360.00000000      37.22253526       1.25284855
       5.70000000      90.00000000     360.00000000      37.22278769       1.25285705
       5.80000000      90.00000000     360.00000000      37.22304011       1.25286554
       5.90000000      90.00000000     360.00000000      37.22329250       1.25287404
       6.00000000      90.00000000     360.00000000      37.22354487       1.25288253
       6.10000000      90.00000000     360.00000000      37.22379721       1.25289102
       6.20000000      90.00000000     360.00000000      37.22404954       1.25289952
       6.30000000      90.00000000     360.00000000      37.22430184       1.25290801
       6.40000000      90.00000000     360.00000000      37.22455413       1.25291650
       6.50000000      90.00000000     360.00000000      37.22480639       1.25292499
       6.60000000      90.00000000     360.00000000      37.22505862       1.25293348
       6.70000000      90.00000000     360.00000000      37.22531084       1.25294197
       6.80000000      90.00000000     360.00000000      37.22556303       1.25295046
       6.90000000      90.00000000     360.00000000      37.22581521       1.25295895
       7.00000000      90.00000000     360.00000000      37.22606736       1.25296743
       7.10000000      90.00000000     360.00000000      37.22631949       1.25297592
       7.20000000      90.00000000     360.00000000      37.22657159       1.25298441
       7.30000000      90.00000000     360.00000000      37.22682368       1.25299289
       7.40000000      90.00000000     360.00000000      37.22707574       1.25300137
       7.50000000      90.00000000     360.00000000      37.22732778       1.25300986
       7.60000000      90.00000000     360.00000000      37.22757980       1.25301834
       7.70000000      90.00000000     360.00000000      37.22783180       1.25302682
       7.80000000      90.00000000     360.00000000      37.22808378       1.25303530
       7.90000000      90.00000000     360.00000000      37.22833573       1.25304378
       8.00000000      90.00000000     360.00000000      37.22858766       1.25305226
       8.10000000      90.00000000     360.00000000      37.22883957       1.25306074
       8.20000000      90.00000000     360.00000000      37.22909146       1.25306922
       8.30000000      90.00000000     360.00000000      37.22934333       1.25307770
       8.40000000      90.00000000     360.00000000      37.22959517       1.25308617
       8.50000000      90.00000000     360.00000000      37.22984700       1.25309465
       8.60000000      90.00000000     360.00000000      37.23009880       1.25310313
       8.70000000      90.00000000     360.00000000      37.23035058       1.25311160
       8.80000000      90.00000000     360.00000000      37.23060234       1.25312007
       8.90000000      90.00000000     360.00000000      37.23085408       1.25312855
       9.00000000      90.00000000     360.00000000      37.23110579       1.25313702
       9.10000000      90.00000000     360.00000000      37.23135749       1.25314549
       9.20000000      90.00000000     360.00000000      37.23160916       1.25315396
       9.30000000      90.00000000     360.00000000      37.23186081       1.25316243
       9.40000000      90.00000000     360.00000000      37.23211244       1.25317090
       9.50000000      90.00000000     360.00000000      37.23236404       1.25317937
       9.60000000      90.00000000     360.00000000      37.23261563       1.25318784
       9.70000000      90.00000000     360.00000000      37.23286719       1.25319631
       9.80000000      90.00000000     360.00000000      37.23311873       1.25320477
       9.90000000      90.00000000     360.00000000      37.23337026       1.25321324
      10.00000000      90.00000000     360.00000000      37.23362175       1.25322170
      10.10000000      90.00000000     360.00000000      37.23387323       1.25323017
      10.20000000      90.00000000     360.00000000      37.23412469       1.25323863
      10.30000000      90.00000000     360.00000000      37.23437612       1.25324709
      10.40000000      90.00000000     360.00000000      37.23462753       1.25325556
      10.50000000      90.00000000     360.00000000      37.23487893       1.25326402
      10.60000000      90.00000000     360.00000000      37.23513029       1.25327248
      10.70000000      90.00000000     360.00000000      37.23538164       1.25328094
      10.80000000      90.00000000     360.00000000      37.23563297       1.25328940
      10.90000000      90.00000000     360.00000000      37.23588427       1.25329786
      11.00000000      90.00000000     360.00000000      37.23613556       1.25330631
      11.10000000      90.00000000     360.00000000      37.23638682       1.25331477
      11.20000000      90.00000000     360.00000000      37.23663806       1.25332323
      11.30000000      90.00000000     360.00000000      37.23688928       1.25333168
      11.40000000      90.00000000     360.00000000      37.23714048       1.25334014
      11.50000000      90.00000000     360.00000000      37.23739165       1.25334859
      11.60000000      90.00000000     360.00000000      37.23764281       1.25335704
      11.70000000      90.00000000     360.00000000      37.23789394       1.25336550
      11.80000000      90.00000000     360.00000000      37.23814505       1.25337395
      11.90000000      90.00000000     360.00000000      37.23839614       1.25338240
      12.00000000      90.00000000     360.00000000      37.23864721       1.25339085
      12.10000000      90.00000000     360.00000000      37.23889826       1.25339930
      12.20000000      90.00000000     360.00000000      37.23914928       1.25340775
      12.30000000      90.00000000     360.00000000      37.23940029       1.25341620
      12.40000000      90.00000000     360.00000000      37.23965127       1.25342465
      12.50000000      90.00000000     360.00000000      37.23990223       1.25343309
      12.60000000      90.00000000     360.00000000      37.24015318       1.25344154
      12.70000000      90.00000000     360.00000000      37.24040409       1.25344998
      12.80000000      90.00000000     360.00000000      37.24065499       1.25345843
      12.90000000      90.00000000     360.00000000      37.24090587       1.25346687
      13.00000000      90.00000000     360.00000000      37.24115672       1.25347532
      13.10000000      90.00000000     360.00000000      37.24140756       1.25348376
      13.20000000      90.00000000     360.00000000      37.24165837       1.25349220
      13.30000000      90.00000000     360.00000000      37.24190916       1.25350064
      13.40000000      90.00000000     360.00000000      37.24215993       1.25350908
      13.50000000      90.00000000     360.00000000      37.24241068       1.25351752
      13.60000000      90.00000000     360.00000000      37.24266141       1.25352596
      13.70000000      90.00000000     360.00000000      37.24291211       1.25353440
      13.80000000      90.00000000     360.00000000      37.24316280       1.25354284
      13.90000000      90.00000000     360.00000000      37.24341346       1.25355128
      14.00000000      90.00000000     360.00000000      37.24366410       1.25355971
      14.10000000      90.00000000     360.00000000      37.24391472       1.25356815
      14.20000000      90.00000000     360.00000000      37.24416532       1.25357658
      14.30000000      90.00000000     360.00000000      37.24441590       1.25358502
      14.40000000      90.00000000     360.00000000      37.24466646       1.25359345
      14.50000000      90.00000000     360.00000000      37.24491700       1.25360188
      14.60000000      90.00000000     360.00000000      37.24516751       1.25361031
      14.70000000      90.00000000     360.00000000      37.24541800       1.25361874
      14.80000000      90.00000000     360.00000000      37.24566848       1.25362718
      14.90000000      90.00000000     360.00000000      37.24591893       1.25363560
      15.00000000      90.00000000     360.00000000      37.24616936       1.25364403
      15.10000000      90.00000000     360.00000000      37.24641977       1.25365246
      15.20000000      90.00000000     360.00000000      37.24667015       1.25366089
      15.30000000      90.00000000     360.00000000      37.24692052       1.25366932
      15.40000000      90.00000000     360.00000000      37.24717087       1.25367774
      15.50000000      90.00000000     360.00000000      37.24742119       1.25368617
      15.60000000      90.00000000     360.00000000      37.24767150       1.25369459
      15.70000000      90.00000000     360.00000000      37.24792178       1.25370302
      15.80000000      90.00000000     360.00000000      37.24817204       1.25371144
      15.90000000      90.00000000     360.00000000      37.24842228       1.25371986
      16.00000000      90.00000000     360.00000000      37.24867250       1.25372829
      16.10000000      90.00000000     360.00000000      37.24892270       1.25373671
      16.20000000      90.00000000     360.00000000      37.24917287       1.25374513
      16.30000000      90.00000000     360.00000000      37.24942303       1.25375355
      16.40000000      90.00000000     360.00000000      37.24967316       1.25376197
      16.50000000      90.00000000     360.00000000      37.24992328       1.25377038
      16.60000000      90.00000000     360.00000000      37.25017337       1.25377880
      16.70000000      90.00000000     360.00000000      37.25042344       1.25378722
      16.80000000      90.00000000     360.00000000      37.25067349       1.25379564
      16.90000000      90.00000000     360.00000000      37.25092352       1.25380405
      17.00000000      90.00000000     360.00000000      37.25117353       1.25381247
      17.10000000      90.00000000     360.00000000      37.25142352       1.25382088
      17.20000000      90.00000000     360.00000000      37.25167348       1.25382929
      17.30000000      90.00000000     360.00000000      37.25192343       1.25383771
      17.40000000      90.00000000     360.00000000      37.25217336       1.25384612
      17.50000000      90.00000000     360.00000000      37.25242326       1.25385453
      17.60000000      90.00000000     360.00000000      37.25267314       1.25386294
      17.70000000      90.00000000     360.00000000      37.25292300       1.25387135
      17.80000000      90.00000000     360.00000000      37.25317284       1.25387976
      17.90000000      90.00000000     360.00000000      37.25342266       1.25388817
      18.00000000      90.00000000     360.00000000      37.25367246       1.25389658
      18.10000000      90.00000000     360.00000000      37.25392224       1.25390498
      18.20000000      90.00000000     360.00000000      37.25417200       1.25391339
      18.30000000      90.00000000     360.00000000      37.25442174       1.25392180
      18.40000000      90.00000000     360.00000000      37.25467145       1.25393020
      18.50000000      90.00000000     360.00000000      37.25492115       1.25393860
      18.60000000      90.00000000     360.00000000      37.25517082       1.25394701
      18.70000000      90.00000000     360.00000000      37.25542047       1.25395541
      18.80000000      90.00000000     360.00000000      37.25567011       1.25396381
      18.90000000      90.00000000     360.00000000      37.25591972       1.25397221
      19.00000000      90.00000000     360.00000000      37.25616931       1.25398062
      19.10000000      90.00000000     360.00000000      37.25641888       1.25398902
      19.20000000      90.00000000     360.00000000      37.25666843       1.25399742
      19.30000000      90.00000000     360.00000000      37.25691796       1.25400581
      19.40000000      90.00000000     360.00000000      37.25716746       1.25401421
      19.50000000      90.00000000     360.00000000      37.25741695       1.25402261
      19.60000000      90.00000000     360.00000000      37.25766642       1.25403101
      19.70000000      90.00000000     360.00000000      37.25791586       1.25403940
      19.80000000      90.00000000     360.00000000      37.25816529       1.25404780
      19.90000000      90.00000000     360.00000000      37.25841469       1.25405619
      20.00000000      90.00000000     360.00000000      37.25866407       1.25406459
      20.10000000      90.00000000     360.00000000      37.25891343       1.25407298
      20.20000000      90.00000000     360.00000000      37.25916278       1.25408137
      20.30000000      90.00000000     360.00000000      37.25941210       1.25408976
      20.40000000      90.00000000     360.00000000      37.25966140       1.25409815
      20.50000000      90.00000000     360.00000000      37.25991068       1.25410654
      20.60000000      90.00000000     360.00000000      37.26015993       1.25411493
      20.70000000      90.00000000     360.00000000      37.26040917       1.25412332
      20.80000000      90.00000000     360.00000000      37.26065839       1.25413171
      20.90000000      90.00000000     360.00000000      37.26090759       1.25414010
      21.00000000      90.00000000     360.00000000      37.26115676       1.25414849
      21.10000000      90.00000000     360.00000000      37.26140592       1.25415687
      21.20000000      90.00000000     360.00000000      37.26165505       1.25416526
      21.30000000      90.00000000     360.00000000      37.26190417       1.25417364
      21.40000000      90.00000000     360.00000000      37.26215326       1.25418203
      21.50000000      90.00000000     360.00000000      37.26240233       1.25419041
      21.60000000      90.00000000     360.00000000      37.26265139       1.25419879
      21.70000000      90.00000000     360.00000000      37.26290042       1.25420717
      21.80000000      90.00000000     360.00000000      37.26314943       1.25421555
      21.90000000      90.00000000     360.00000000      37.26339842       1.25422394
      22.00000000      90.00000000     360.00000000      37.26364739       1.25423232
      22.10000000      90.00000000     360.00000000      37.26389634       1.25424069
      22.20000000      90.00000000     360.00000000      37.26414527       1.25424907
      22.30000000      90.00000000     360.00000000      37.26439418       1.25425745
      22.40000000      90.00000000     360.00000000      37.26464307       1.25426583
      22.50000000      90.00000000     360.00000000      37.26489193       1.25427420
      22.60000000      90.00000000     360.00000000      37.26514078       1.25428258
      22.70000000      90.00000000     360.00000000      37.26538961       1.25429096
      22.80000000      90.00000000     360.00000000      37.26563841       1.25429933
      22.90000000      90.00000000     360.00000000      37.26588720       1.25430770
      23.00000000      90.00000000     360.00000000      37.26613596       1.25431608
      23.10000000      90.00000000     360.00000000      37.26638471       1.25432445
      23.20000000      90.00000000     360.00000000      37.26663343       1.25433282
      23.30000000      90.00000000     360.00000000      37.26688213       1.25434119
      23.40000000      90.00000000     360.00000000      37.26713082       1.25434956
      23.50000000      90.00000000     360.00000000      37.26737948       1.25435793
      23.60000000      90.00000000     360.00000000      37.26762812       1.25436630
      23.70000000      90.00000000     360.00000000      37.26787674       1.25437467
      23.80000000      90.00000000     360.00000000      37.26812535       1.25438304
      23.90000000      90.00000000     360.00000000      37.26837393       1.25439140
      24.00000000      90.00000000     360.00000000      37.26862249       1.25439977
      24.10000000      90.00000000     360.00000000      37.26887103       1.25440813
      24.20000000      90.00000000     360.00000000      37.26911955       1.25441650
      24.30000000      90.00000000     360.00000000      37.26936805       1.25442486
      24.40000000      90.00000000     360.00000000      37.26961653       1.25443323
      24.50000000      90.00000000     360.00000000      37.26986499       1.25444159
      24.60000000      90.00000000     360.00000000      37.27011342       1.25444995
      24.70000000      90.00000000     360.00000000      37.27036184       1.25445831
      24.80000000      90.00000000     360.00000000      37.27061024       1.25446667
      24.90000000      90.00000000     360.00000000      37.27085862       1.25447503
      25.00000000      90.00000000     360.00000000      37.27110697       1.25448339
      25.10000000      90.00000000     360.00000000      37.27135531       1.25449175
      25.20000000      90.00000000     360.00000000      37.27160363       1.25450011
      25.30000000      90.00000000     360.00000000      37.27185193       1.25450847
      25.40000000      90.00000000     360.00000000      37.27210020       1.25451682
      25.50000000      90.00000000     360.00000000      37.27234846       1.25452518
      25.60000000      90.00000000     360.00000000      37.27259669       1.25453353
      25.70000000      90.00000000     360.00000000      37.27284491       1.25454189
      25.80000000      90.00000000     360.00000000      37.27309310       1.25455024
      25.90000000      90.00000000     360.00000000      37.27334128       1.25455860
      26.00000000      90.00000000     360.00000000      37.27358943       1.25456695
      26.10000000      90.00000000     360.00000000      37.27383757       1.25457530
      26.20000000      90.00000000     360.00000000      37.27408568       1.25458365
      26.30000000      90.00000000     360.00000000      37.27433378       1.25459200
      26.40000000      90.00000000     360.00000000      37.27458185       1.25460035
      26.50000000      90.00000000     360.00000000      37.27482990       1.25460870
      26.60000000      90.00000000     360.00000000      37.27507794       1.25461705
      26.70000000      90.00000000     360.00000000      37.27532595       1.25462540
      26.80000000      90.00000000     360.00000000      37.27557394       1.25463374
      26.90000000      90.00000000     360.00000000      37.27582192       1.25464209
      27.00000000      90.00000000     360.00000000      37.27606987       1.25465044
      27.10000000      90.00000000     360.00000000      37.27631780       1.25465878
      27.20000000      90.00000000     360.00000000      37.27656572       1.25466712
      27.30000000      90.00000000     360.00000000      37.27681361       1.25467547
      27.40000000      90.00000000     360.00000000      37.27706148       1.25468381
      27.50000000      90.00000000     360.00000000      37.27730933       1.25469215
      27.60000000      90.00000000     360.00000000      37.27755717       1.25470050
      27.70000000      90.00000000     360.00000000      37.27780498       1.25470884
      27.80000000      90.00000000     360.00000000      37.27805277       1.25471718
      27.90000000      90.00000000     360.00000000      37.27830054       1.25472552
      28.00000000      90.00000000     360.00000000      37.27854830       1.25473386
      28.10000000      90.00000000     360.00000000      37.27879603       1.25474219
      28.20000000      90.00000000     360.00000000      37.27904374       1.25475053
      28.30000000      90.00000000     360.00000000      37.27929143       1.25475887
      28.40000000      90.00000000     360.00000000      37.27953911       1.25476720
      28.50000000      90.00000000     360.00000000      37.27978676       1.25477554
      28.60000000      90.00000000     360.00000000      37.28003439       1.25478387
      28.70000000      90.00000000     360.00000000      37.28028200       1.25479221
      28.80000000      90.00000000     360.00000000      37.28052959       1.25480054
      28.90000000      90.00000000     360.00000000      37.28077717       1.25480888
      29.00000000      90.00000000     360.00000000      37.28102472       1.25481721
      29.10000000      90.00000000     360.00000000      37.28127225       1.25482554
      29.20000000      90.00000000     360.00000000      37.28151976       1.25483387
      29.30000000      90.00000000     360.00000000      37.28176726       1.25484220
      29.40000000      90.00000000     360.00000000      37.28201473       1.25485053
      29.50000000      90.00000000     360.00000000      37.28226218       1.25485886
      29.60000000      90.00000000     360.00000000      37.28250961       1.25486719
      29.70000000      90.00000000     360.00000000      37.28275703       1.25487551
      29.80000000      90.00000000     360.00000000      37.28300442       1.25488384
      29.90000000      90.00000000     360.00000000      37.28325179       1.25489217
      30.00000000      90.00000000     360.00000000      37.28349915       1.25490049
      30.10000000      90.00000000     360.00000000      37.28374648       1.25490882
      30.20000000      90.00000000     360.00000000      37.28399379       1.25491714
      30.30000000      90.00000000     360.00000000      37.28424109       1.25492546
      30.40000000      90.00000000     360.00000000      37.28448836       1.25493379
      30.50000000      90.00000000     360.00000000      37.28473562       1.25494211
      30.60000000      90.00000000     360.00000000      37.28498285       1.25495043
      30.70000000      90.00000000     360.00000000      37.28523006       1.25495875
      30.80000000      90.00000000     360.00000000      37.28547726       1.25496707
      30.90000000      90.00000000     360.00000000      37.28572443       1.25497539
      31.00000000      90.00000000     360.00000000      37.28597159       1.25498371
      31.10000000      90.00000000     360.00000000      37.28621872       1.25499203
      31.20000000      90.00000000     360.00000000      37.28646584       1.25500035
      31.30000000      90.00000000     360.00000000      37.28671294       1.25500866
      31.40000000      90.00000000     360.00000000      37.28696001       1.25501698
      31.50000000      90.00000000     360.00000000      37.28720707       1.25502529
      31.60000000      90.00000000     360.00000000      37.28745410       1.25503361
      31.70000000      90.00000000     360.00000000      37.28770112       1.25504192
      31.80000000      90.00000000     360.00000000      37.28794812       1.25505024
      31.90000000      90.00000000     360.00000000      37.28819510       1.25505855
      32.00000000      90.00000000     360.00000000      37.28844205       1.25506686
      32.10000000      90.00000000     360.00000000      37.28868899       1.25507517
      32.20000000      90.00000000     360.00000000      37.28893591       1.25508348
      32.30000000      90.00000000     360.00000000      37.28918281       1.25509180
      32.40000000      90.00000000     360.00000000      37.28942969       1.25510010
      32.50000000      90.00000000     360.00000000      37.28967655       1.25510841
      32.60000000      90.00000000     360.00000000      37.28992339       1.25511672
      32.70000000      90.00000000     360.00000000      37.29017021       1.25512503
      32.80000000      90.00000000     360.00000000      37.29041701       1.25513334
      32.90000000      90.00000000     360.00000000      37.29066379       1.25514164
      33.00000000      90.00000000     360.00000000      37.29091055       1.25514995
      33.10000000      90.00000000     360.00000000      37.29115729       1.25515825
      33.20000000      90.00000000     360.00000000      37.29140401       1.25516656
      33.30000000      90.00000000     360.00000000      37.29165072       1.25517486
      33.40000000      90.00000000     360.00000000      37.29189740       1.25518316
      33.50000000      90.00000000     360.00000000      37.29214406       1.25519147
      33.60000000      90.00000000     360.00000000      37.29239071       1.25519977
      33.70000000      90.00000000     360.00000000      37.29263733       1.25520807
      33.80000000      90.00000000     360.00000000      37.29288393       1.25521637
      33.90000000      90.00000000     360.00000000      37.29313052       1.25522467
      34.00000000      90.00000000     360.00000000      37.29337709       1.25523297
      34.10000000      90.00000000     360.00000000      37.29362363       1.25524127
      34.20000000      90.00000000     360.00000000      37.29387016       1.25524956
      34.30000000      90.00000000     360.00000000      37.29411667       1.25525786
      34.40000000      90.00000000     360.00000000      37.29436315       1.25526616
      34.50000000      90.00000000     360.00000000      37.29460962       1.25527445
      34.60000000      90.00000000     360.00000000      37.29485607       1.25528275
      34.70000000      90.00000000     360.00000000      37.29510250       1.25529104
      34.80000000      90.00000000     360.00000000      37.29534891       1.25529934
      34.90000000      90.00000000     360.00000000      37.29559530       1.25530763
      35.00000000      90.00000000     360.00000000      37.29584167       1.25531592
      35.10000000      90.00000000     360.00000000      37.29608802       1.25532421
      35.20000000      90.00000000     360.00000000      37.29633435       1.25533250
      35.30000000      90.00000000     360.00000000      37.29658067       1.25534079
      35.40000000      90.00000000     360.00000000      37.29682696       1.25534908
      35.50000000      90.00000000     360.00000000      37.29707323       1.25535737
      35.60000000      90.00000000     360.00000000      37.29731949       1.25536566
      35.70000000      90.00000000     360.00000000      37.29756572       1.25537395
      35.80000000      90.00000000     360.00000000      37.29781194       1.25538224
      35.90000000      90.00000000     360.00000000      37.29805814       1.25539052
      36.00000000      90.00000000     360.00000000      37.29830431       1.25539881
      36.10000000      90.00000000     360.00000000      37.29855047       1.25540709
      36.20000000      90.00000000     360.00000000      37.29879661       1.25541538
      36.30000000      90.00000000     360.00000000      37.29904273       1.25542366
      36.40000000      90.00000000     360.00000000      37.29928883       1.25543195
      36.50000000      90.00000000     360.00000000      37.29953491       1.25544023
      36.60000000      90.00000000     360.00000000      37.29978097       1.25544851
      36.70000000      90.00000000     360.00000000      37.30002701       1.25545679
      36.80000000      90.00000000     360.00000000      37.30027303       1.25546507
      36.90000000      90.00000000     360.00000000      37.30051904       1.25547335
      37.00000000      90.00000000     360.00000000      37.30076502       1.25548163
      37.10000000      90.00000000     360.00000000      37.30101099       1.25548991
      37.20000000      90.00000000     360.00000000      37.30125693       1.25549819
      37.30000000      90.00000000     360.00000000      37.30150286       1.25550647
      37.40000000      90.00000000     360.00000000      37.30174876       1.25551474
      37.50000000      90.00000000     360.00000000      37.30199465       1.25552302
      37.60000000      90.00000000     360.00000000      37.30224052       1.25553130
      37.70000000      90.00000000     360.00000000      37.30248637       1.25553957
      37.80000000      90.00000000     360.00000000      37.30273220       1.25554785
      37.90000000      90.00000000     360.00000000      37.30297801       1.25555612
      38.00000000      90.00000000     360.00000000      37.30322380       1.25556439
      38.10000000      90.00000000     360.00000000      37.30346958       1.25557266
      38.20000000      90.00000000     360.00000000      37.30371533       1.25558094
      38.30000000      90.00000000     360.00000000      37.30396106       1.25558921
      38.40000000      90.00000000     360.00000000      37.30420678       1.25559748
      38.50000000      90.00000000     360.00000000      37.30445248       1.25560575
      38.60000000      90.00000000     360.00000000      37.30469815       1.25561402
      38.70000000      90.00000000     360.00000000      37.30494381       1.25562228
      38.80000000      90.00000000     360.00000000      37.30518945       1.25563055
      38.90000000      90.00000000     360.00000000      37.30543507       1.25563882
      39.00000000      90.00000000     360.00000000      37.30568067       1.25564709
      39.10000000      90.00000000     360.00000000      37.30592625       1.25565535
      39.20000000      90.00000000     360.00000000      37.30617181       1.25566362
      39.30000000      90.00000000     360.00000000      37.30641736       1.25567188
      39.40000000      90.00000000     360.00000000      37.30666288       1.25568015
      39.50000000      90.00000000     360.00000000      37.30690839       1.25568841
      39.60000000      90.00000000     360.00000000      37.30715387       1.25569667
      39.70000000      90.00000000     360.00000000      37.30739934       1.25570493
      39.80000000      90.00000000     360.00000000      37.30764479       1.25571319
      39.90000000      90.00000000     360.00000000      37.30789022       1.25572146
      40.00000000      90.00000000     360.00000000      37.30813563       1.25572972
