 # applied field (T), theta (degree), phi (degree), abs [muB/unitcell], abs [T]
       0.00000000       0.00000000       0.00000000      36.72285811       1.22763783
       0.10000000       1.25858537      45.00000000      36.72270309       1.22763265
       0.20000000       2.51720136      45.00000000      36.72249626       1.22762574
       0.30000000       3.77585791      45.00000000      36.72224041       1.22761718
       0.40000000       5.03456401      45.00000000      36.72193890       1.22760710
       0.50000000       6.29332772      45.00000000      36.72159561       1.22759563
       0.60000000       7.55215625      45.00000000      36.72121500       1.22758290
       0.70000000       8.86824858      45.00000000      36.72078087       1.22756839
       0.80000000      10.12722877      45.00000000      36.72033989       1.22755365
       0.90000000      11.44349122      45.00000000      36.71985483       1.22753743
       1.00000000      12.75984801      45.00000000      36.71935439       1.22752071
       1.10000000      14.13351245      45.00000000      36.71882168       1.22750290
       1.20000000      15.45007333      45.00000000      36.71831467       1.22748595
       1.30000000      16.88117637      45.00000000      36.71776863       1.22746769
       1.40000000      18.25518066      45.00000000      36.71726815       1.22745096
       1.50000000      19.68653174      45.00000000      36.71677617       1.22743452
       1.60000000      21.17524700      45.00000000      36.71630795       1.22741886
       1.70000000      22.66410332      45.00000000      36.71589959       1.22740521
       1.80000000      24.21034888      45.00000000      36.71554755       1.22739344
       1.90000000      25.81400312      45.00000000      36.71527277       1.22738426
       2.00000000      27.47508699      45.00000000      36.71509792       1.22737841
       2.10000000      29.19362323      45.00000000      36.71504663       1.22737670
       2.20000000      30.96963654      45.00000000      36.71514229       1.22737990
       2.30000000      32.86043622      45.00000000      36.71541328       1.22738895
       2.40000000      34.80878513      45.00000000      36.71588213       1.22740463
       2.50000000      36.87201566      45.00000000      36.71658053       1.22742798
       2.60000000      39.10750099      45.00000000      36.71755527       1.22746056
       2.70000000      41.45801684      45.00000000      36.71880467       1.22750233
       2.80000000      44.09562971      45.00000000      36.72042297       1.22755643
       2.90000000      46.96315936      45.00000000      36.72237526       1.22762169
       3.00000000      50.23279353      45.00000000      36.72472003       1.22770008
       3.10000000      54.01944408      45.00000000      36.72741064       1.22779002
       3.20000000      58.66751733      45.00000000      36.73037703       1.22788919
       3.30000000      64.86565953      45.00000000      36.73325656       1.22798545
       3.40000000      75.31044003      45.00000000      36.73425474       1.22801882
       3.50000000      90.00000000      45.00000000      36.72698267       1.22777572
       3.60000000      90.00000000      45.00000000      36.72721587       1.22778351
       3.70000000      90.00000000      45.00000000      36.72744906       1.22779131
       3.80000000      90.00000000      45.00000000      36.72768223       1.22779910
       3.90000000      90.00000000      45.00000000      36.72791539       1.22780690
       4.00000000      90.00000000      45.00000000      36.72814854       1.22781469
       4.10000000      90.00000000      45.00000000      36.72838166       1.22782249
       4.20000000      90.00000000      45.00000000      36.72861478       1.22783028
       4.30000000      90.00000000      45.00000000      36.72884788       1.22783807
       4.40000000      90.00000000      45.00000000      36.72908096       1.22784586
       4.50000000      90.00000000      45.00000000      36.72931403       1.22785365
       4.60000000      90.00000000      45.00000000      36.72954708       1.22786144
       4.70000000      90.00000000      45.00000000      36.72978006       1.22786923
       4.80000000      90.00000000      45.00000000      36.73001303       1.22787702
       4.90000000      90.00000000      45.00000000      36.73024598       1.22788481
       5.00000000      90.00000000      45.00000000      36.73047892       1.22789260
       5.10000000      90.00000000      45.00000000      36.73071185       1.22790038
       5.20000000      90.00000000      45.00000000      36.73094476       1.22790817
       5.30000000      90.00000000      45.00000000      36.73117765       1.22791595
       5.40000000      90.00000000      45.00000000      36.73141053       1.22792374
       5.50000000      90.00000000      45.00000000      36.73164339       1.22793152
       5.60000000      90.00000000      45.00000000      36.73187624       1.22793931
       5.70000000      90.00000000      45.00000000      36.73210908       1.22794709
       5.80000000      90.00000000      45.00000000      36.73234190       1.22795487
       5.90000000      90.00000000      45.00000000      36.73257471       1.22796266
       6.00000000      90.00000000      45.00000000      36.73280750       1.22797044
       6.10000000      90.00000000      45.00000000      36.73304027       1.22797822
       6.20000000      90.00000000      45.00000000      36.73327303       1.22798600
       6.30000000      90.00000000      45.00000000      36.73350578       1.22799378
       6.40000000      90.00000000      45.00000000      36.73373851       1.22800156
       6.50000000      90.00000000      45.00000000      36.73397123       1.22800934
       6.60000000      90.00000000      45.00000000      36.73420393       1.22801712
       6.70000000      90.00000000      45.00000000      36.73443661       1.22802490
       6.80000000      90.00000000      45.00000000      36.73466928       1.22803268
       6.90000000      90.00000000      45.00000000      36.73490193       1.22804046
       7.00000000      90.00000000      45.00000000      36.73513457       1.22804823
       7.10000000      90.00000000      45.00000000      36.73536718       1.22805601
       7.20000000      90.00000000      45.00000000      36.73559979       1.22806379
       7.30000000      90.00000000      45.00000000      36.73583237       1.22807156
       7.40000000      90.00000000      45.00000000      36.73606494       1.22807934
       7.50000000      90.00000000      45.00000000      36.73629749       1.22808711
       7.60000000      90.00000000      45.00000000      36.73653003       1.22809488
       7.70000000      90.00000000      45.00000000      36.73676255       1.22810266
       7.80000000      90.00000000      45.00000000      36.73699505       1.22811043
       7.90000000      90.00000000      45.00000000      36.73722754       1.22811820
       8.00000000      90.00000000      45.00000000      36.73746000       1.22812597
       8.10000000      90.00000000      45.00000000      36.73769246       1.22813374
       8.20000000      90.00000000      45.00000000      36.73792489       1.22814151
       8.30000000      90.00000000      45.00000000      36.73815731       1.22814928
       8.40000000      90.00000000      45.00000000      36.73838971       1.22815705
       8.50000000      90.00000000      45.00000000      36.73862210       1.22816482
       8.60000000      90.00000000      45.00000000      36.73885669       1.22817266
       8.70000000      90.00000000      45.00000000      36.73908910       1.22818043
       8.80000000      90.00000000      45.00000000      36.73932149       1.22818820
       8.90000000      90.00000000      45.00000000      36.73955387       1.22819597
       9.00000000      90.00000000      45.00000000      36.73978623       1.22820374
       9.10000000      90.00000000      45.00000000      36.74001857       1.22821150
       9.20000000      90.00000000      45.00000000      36.74025090       1.22821927
       9.30000000      90.00000000      45.00000000      36.74048321       1.22822704
       9.40000000      90.00000000      45.00000000      36.74071550       1.22823480
       9.50000000      90.00000000      45.00000000      36.74094778       1.22824257
       9.60000000      90.00000000      45.00000000      36.74118004       1.22825033
       9.70000000      90.00000000      45.00000000      36.74141228       1.22825810
       9.80000000      90.00000000      45.00000000      36.74164451       1.22826586
       9.90000000      90.00000000      45.00000000      36.74187672       1.22827362
      10.00000000      90.00000000      45.00000000      36.74210892       1.22828138
      10.10000000      90.00000000      45.00000000      36.74234110       1.22828915
      10.20000000      90.00000000      45.00000000      36.74257326       1.22829691
      10.30000000      90.00000000      45.00000000      36.74280541       1.22830467
      10.40000000      90.00000000      45.00000000      36.74303754       1.22831243
      10.50000000      90.00000000      45.00000000      36.74326965       1.22832019
      10.60000000      90.00000000      45.00000000      36.74350175       1.22832795
      10.70000000      90.00000000      45.00000000      36.74373383       1.22833570
      10.80000000      90.00000000      45.00000000      36.74396589       1.22834346
      10.90000000      90.00000000      45.00000000      36.74419794       1.22835122
      11.00000000      90.00000000      45.00000000      36.74442997       1.22835898
      11.10000000      90.00000000      45.00000000      36.74466199       1.22836673
      11.20000000      90.00000000      45.00000000      36.74489399       1.22837449
      11.30000000      90.00000000      45.00000000      36.74512597       1.22838224
      11.40000000      90.00000000      45.00000000      36.74535793       1.22839000
      11.50000000      90.00000000      45.00000000      36.74558988       1.22839775
      11.60000000      90.00000000      45.00000000      36.74582181       1.22840551
      11.70000000      90.00000000      45.00000000      36.74605373       1.22841326
      11.80000000      90.00000000      45.00000000      36.74628563       1.22842101
      11.90000000      90.00000000      45.00000000      36.74651751       1.22842876
      12.00000000      90.00000000      45.00000000      36.74674937       1.22843651
      12.10000000      90.00000000      45.00000000      36.74698122       1.22844426
      12.20000000      90.00000000      45.00000000      36.74721305       1.22845201
      12.30000000      90.00000000      45.00000000      36.74744487       1.22845976
      12.40000000      90.00000000      45.00000000      36.74767666       1.22846751
      12.50000000      90.00000000      45.00000000      36.74790844       1.22847526
      12.60000000      90.00000000      45.00000000      36.74814020       1.22848301
      12.70000000      90.00000000      45.00000000      36.74837195       1.22849076
      12.80000000      90.00000000      45.00000000      36.74860368       1.22849850
      12.90000000      90.00000000      45.00000000      36.74883539       1.22850625
      13.00000000      90.00000000      45.00000000      36.74906708       1.22851399
      13.10000000      90.00000000      45.00000000      36.74929876       1.22852174
      13.20000000      90.00000000      45.00000000      36.74953042       1.22852948
      13.30000000      90.00000000      45.00000000      36.74976206       1.22853723
      13.40000000      90.00000000      45.00000000      36.74999369       1.22854497
      13.50000000      90.00000000      45.00000000      36.75022535       1.22855271
      13.60000000      90.00000000      45.00000000      36.75045694       1.22856046
      13.70000000      90.00000000      45.00000000      36.75068851       1.22856820
      13.80000000      90.00000000      45.00000000      36.75092007       1.22857594
      13.90000000      90.00000000      45.00000000      36.75115161       1.22858368
      14.00000000      90.00000000      45.00000000      36.75138313       1.22859142
      14.10000000      90.00000000      45.00000000      36.75161463       1.22859916
      14.20000000      90.00000000      45.00000000      36.75184612       1.22860690
      14.30000000      90.00000000      45.00000000      36.75207759       1.22861464
      14.40000000      90.00000000      45.00000000      36.75230904       1.22862237
      14.50000000      90.00000000      45.00000000      36.75254048       1.22863011
      14.60000000      90.00000000      45.00000000      36.75277190       1.22863785
      14.70000000      90.00000000      45.00000000      36.75300330       1.22864558
      14.80000000      90.00000000      45.00000000      36.75323469       1.22865332
      14.90000000      90.00000000      45.00000000      36.75346605       1.22866105
      15.00000000      90.00000000      45.00000000      36.75369740       1.22866879
      15.10000000      90.00000000      45.00000000      36.75392874       1.22867652
      15.20000000      90.00000000      45.00000000      36.75416005       1.22868425
      15.30000000      90.00000000      45.00000000      36.75439135       1.22869198
      15.40000000      90.00000000      45.00000000      36.75462263       1.22869972
      15.50000000      90.00000000      45.00000000      36.75485390       1.22870745
      15.60000000      90.00000000      45.00000000      36.75508515       1.22871518
      15.70000000      90.00000000      45.00000000      36.75531638       1.22872291
      15.80000000      90.00000000      45.00000000      36.75554759       1.22873064
      15.90000000      90.00000000      45.00000000      36.75577879       1.22873837
      16.00000000      90.00000000      45.00000000      36.75600997       1.22874609
      16.10000000      90.00000000      45.00000000      36.75624113       1.22875382
      16.20000000      90.00000000      45.00000000      36.75647228       1.22876155
      16.30000000      90.00000000      45.00000000      36.75670341       1.22876928
      16.40000000      90.00000000      45.00000000      36.75693452       1.22877700
      16.50000000      90.00000000      45.00000000      36.75716562       1.22878473
      16.60000000      90.00000000      45.00000000      36.75739670       1.22879245
      16.70000000      90.00000000      45.00000000      36.75762776       1.22880018
      16.80000000      90.00000000      45.00000000      36.75785880       1.22880790
      16.90000000      90.00000000      45.00000000      36.75808983       1.22881562
      17.00000000      90.00000000      45.00000000      36.75832084       1.22882335
      17.10000000      90.00000000      45.00000000      36.75855183       1.22883107
      17.20000000      90.00000000      45.00000000      36.75878280       1.22883879
      17.30000000      90.00000000      45.00000000      36.75901376       1.22884651
      17.40000000      90.00000000      45.00000000      36.75924470       1.22885423
      17.50000000      90.00000000      45.00000000      36.75947562       1.22886195
      17.60000000      90.00000000      45.00000000      36.75970652       1.22886967
      17.70000000      90.00000000      45.00000000      36.75993740       1.22887739
      17.80000000      90.00000000      45.00000000      36.76016826       1.22888510
      17.90000000      90.00000000      45.00000000      36.76039911       1.22889282
      18.00000000      90.00000000      45.00000000      36.76063063       1.22890056
      18.10000000      90.00000000      45.00000000      36.76086143       1.22890828
      18.20000000      90.00000000      45.00000000      36.76109220       1.22891599
      18.30000000      90.00000000      45.00000000      36.76132296       1.22892371
      18.40000000      90.00000000      45.00000000      36.76155370       1.22893142
      18.50000000      90.00000000      45.00000000      36.76178442       1.22893913
      18.60000000      90.00000000      45.00000000      36.76201512       1.22894684
      18.70000000      90.00000000      45.00000000      36.76224580       1.22895456
      18.80000000      90.00000000      45.00000000      36.76247646       1.22896227
      18.90000000      90.00000000      45.00000000      36.76270709       1.22896998
      19.00000000      90.00000000      45.00000000      36.76293771       1.22897769
      19.10000000      90.00000000      45.00000000      36.76316831       1.22898540
      19.20000000      90.00000000      45.00000000      36.76339889       1.22899310
      19.30000000      90.00000000      45.00000000      36.76362946       1.22900081
      19.40000000      90.00000000      45.00000000      36.76386000       1.22900852
      19.50000000      90.00000000      45.00000000      36.76409052       1.22901622
      19.60000000      90.00000000      45.00000000      36.76432103       1.22902393
      19.70000000      90.00000000      45.00000000      36.76455151       1.22903164
      19.80000000      90.00000000      45.00000000      36.76478198       1.22903934
      19.90000000      90.00000000      45.00000000      36.76501243       1.22904704
      20.00000000      90.00000000      45.00000000      36.76524286       1.22905475
      20.10000000      90.00000000      45.00000000      36.76547327       1.22906245
      20.20000000      90.00000000      45.00000000      36.76570366       1.22907015
      20.30000000      90.00000000      45.00000000      36.76593404       1.22907785
      20.40000000      90.00000000      45.00000000      36.76616439       1.22908555
      20.50000000      90.00000000      45.00000000      36.76639473       1.22909325
      20.60000000      90.00000000      45.00000000      36.76662506       1.22910095
      20.70000000      90.00000000      45.00000000      36.76685536       1.22910865
      20.80000000      90.00000000      45.00000000      36.76708565       1.22911635
      20.90000000      90.00000000      45.00000000      36.76731592       1.22912405
      21.00000000      90.00000000      45.00000000      36.76754617       1.22913175
      21.10000000      90.00000000      45.00000000      36.76777640       1.22913944
      21.20000000      90.00000000      45.00000000      36.76800662       1.22914714
      21.30000000      90.00000000      45.00000000      36.76823682       1.22915483
      21.40000000      90.00000000      45.00000000      36.76846700       1.22916253
      21.50000000      90.00000000      45.00000000      36.76869717       1.22917022
      21.60000000      90.00000000      45.00000000      36.76892732       1.22917792
      21.70000000      90.00000000      45.00000000      36.76915745       1.22918561
      21.80000000      90.00000000      45.00000000      36.76938756       1.22919330
      21.90000000      90.00000000      45.00000000      36.76961766       1.22920100
      22.00000000      90.00000000      45.00000000      36.76984773       1.22920869
      22.10000000      90.00000000      45.00000000      36.77007780       1.22921638
      22.20000000      90.00000000      45.00000000      36.77030784       1.22922407
      22.30000000      90.00000000      45.00000000      36.77053787       1.22923176
      22.40000000      90.00000000      45.00000000      36.77076788       1.22923945
      22.50000000      90.00000000      45.00000000      36.77099787       1.22924714
      22.60000000      90.00000000      45.00000000      36.77122785       1.22925482
      22.70000000      90.00000000      45.00000000      36.77145780       1.22926251
      22.80000000      90.00000000      45.00000000      36.77168775       1.22927020
      22.90000000      90.00000000      45.00000000      36.77191767       1.22927789
      23.00000000      90.00000000      45.00000000      36.77214758       1.22928557
      23.10000000      90.00000000      45.00000000      36.77237746       1.22929326
      23.20000000      90.00000000      45.00000000      36.77260734       1.22930094
      23.30000000      90.00000000      45.00000000      36.77283719       1.22930862
      23.40000000      90.00000000      45.00000000      36.77306703       1.22931631
      23.50000000      90.00000000      45.00000000      36.77329685       1.22932399
      23.60000000      90.00000000      45.00000000      36.77352665       1.22933167
      23.70000000      90.00000000      45.00000000      36.77375643       1.22933935
      23.80000000      90.00000000      45.00000000      36.77398620       1.22934704
      23.90000000      90.00000000      45.00000000      36.77421595       1.22935472
      24.00000000      90.00000000      45.00000000      36.77444569       1.22936240
      24.10000000      90.00000000      45.00000000      36.77467540       1.22937008
      24.20000000      90.00000000      45.00000000      36.77490510       1.22937775
      24.30000000      90.00000000      45.00000000      36.77513478       1.22938543
      24.40000000      90.00000000      45.00000000      36.77536444       1.22939311
      24.50000000      90.00000000      45.00000000      36.77559409       1.22940079
      24.60000000      90.00000000      45.00000000      36.77582372       1.22940846
      24.70000000      90.00000000      45.00000000      36.77605333       1.22941614
      24.80000000      90.00000000      45.00000000      36.77628292       1.22942381
      24.90000000      90.00000000      45.00000000      36.77651249       1.22943149
      25.00000000      90.00000000      45.00000000      36.77674205       1.22943916
      25.10000000      90.00000000      45.00000000      36.77697159       1.22944684
      25.20000000      90.00000000      45.00000000      36.77720112       1.22945451
      25.30000000      90.00000000      45.00000000      36.77743062       1.22946218
      25.40000000      90.00000000      45.00000000      36.77766011       1.22946985
      25.50000000      90.00000000      45.00000000      36.77788958       1.22947752
      25.60000000      90.00000000      45.00000000      36.77811904       1.22948520
      25.70000000      90.00000000      45.00000000      36.77834847       1.22949287
      25.80000000      90.00000000      45.00000000      36.77857789       1.22950053
      25.90000000      90.00000000      45.00000000      36.77880729       1.22950820
      26.00000000      90.00000000      45.00000000      36.77903667       1.22951587
      26.10000000      90.00000000      45.00000000      36.77926822       1.22952361
      26.20000000      90.00000000      45.00000000      36.77949754       1.22953128
      26.30000000      90.00000000      45.00000000      36.77972684       1.22953894
      26.40000000      90.00000000      45.00000000      36.77995613       1.22954661
      26.50000000      90.00000000      45.00000000      36.78018540       1.22955427
      26.60000000      90.00000000      45.00000000      36.78041464       1.22956194
      26.70000000      90.00000000      45.00000000      36.78064387       1.22956960
      26.80000000      90.00000000      45.00000000      36.78087306       1.22957726
      26.90000000      90.00000000      45.00000000      36.78110222       1.22958492
      27.00000000      90.00000000      45.00000000      36.78133134       1.22959258
      27.10000000      90.00000000      45.00000000      36.78156043       1.22960024
      27.20000000      90.00000000      45.00000000      36.78178949       1.22960790
      27.30000000      90.00000000      45.00000000      36.78201854       1.22961555
      27.40000000      90.00000000      45.00000000      36.78224757       1.22962321
      27.50000000      90.00000000      45.00000000      36.78247659       1.22963087
      27.60000000      90.00000000      45.00000000      36.78270566       1.22963853
      27.70000000      90.00000000      45.00000000      36.78293508       1.22964619
      27.80000000      90.00000000      45.00000000      36.78316434       1.22965386
      27.90000000      90.00000000      45.00000000      36.78339342       1.22966152
      28.00000000      90.00000000      45.00000000      36.78362245       1.22966917
      28.10000000      90.00000000      45.00000000      36.78385145       1.22967683
      28.20000000      90.00000000      45.00000000      36.78408044       1.22968448
      28.30000000      90.00000000      45.00000000      36.78430940       1.22969214
      28.40000000      90.00000000      45.00000000      36.78453835       1.22969979
      28.50000000      90.00000000      45.00000000      36.78476728       1.22970744
      28.60000000      90.00000000      45.00000000      36.78499619       1.22971510
      28.70000000      90.00000000      45.00000000      36.78522509       1.22972275
      28.80000000      90.00000000      45.00000000      36.78545397       1.22973040
      28.90000000      90.00000000      45.00000000      36.78568283       1.22973805
      29.00000000      90.00000000      45.00000000      36.78591167       1.22974570
      29.10000000      90.00000000      45.00000000      36.78614050       1.22975335
      29.20000000      90.00000000      45.00000000      36.78636931       1.22976100
      29.30000000      90.00000000      45.00000000      36.78659810       1.22976865
      29.40000000      90.00000000      45.00000000      36.78682688       1.22977630
      29.50000000      90.00000000      45.00000000      36.78705564       1.22978394
      29.60000000      90.00000000      45.00000000      36.78728438       1.22979159
      29.70000000      90.00000000      45.00000000      36.78751310       1.22979924
      29.80000000      90.00000000      45.00000000      36.78774181       1.22980688
      29.90000000      90.00000000      45.00000000      36.78797050       1.22981453
      30.00000000      90.00000000      45.00000000      36.78819917       1.22982217
      30.10000000      90.00000000      45.00000000      36.78842783       1.22982982
      30.20000000      90.00000000      45.00000000      36.78865647       1.22983746
      30.30000000      90.00000000      45.00000000      36.78888509       1.22984510
      30.40000000      90.00000000      45.00000000      36.78911369       1.22985274
      30.50000000      90.00000000      45.00000000      36.78934228       1.22986039
      30.60000000      90.00000000      45.00000000      36.78957086       1.22986803
      30.70000000      90.00000000      45.00000000      36.78979941       1.22987567
      30.80000000      90.00000000      45.00000000      36.79002795       1.22988331
      30.90000000      90.00000000      45.00000000      36.79025647       1.22989095
      31.00000000      90.00000000      45.00000000      36.79048498       1.22989859
      31.10000000      90.00000000      45.00000000      36.79071346       1.22990622
      31.20000000      90.00000000      45.00000000      36.79094194       1.22991386
      31.30000000      90.00000000      45.00000000      36.79117039       1.22992150
      31.40000000      90.00000000      45.00000000      36.79139883       1.22992914
      31.50000000      90.00000000      45.00000000      36.79162725       1.22993677
      31.60000000      90.00000000      45.00000000      36.79185566       1.22994441
      31.70000000      90.00000000      45.00000000      36.79208405       1.22995204
      31.80000000      90.00000000      45.00000000      36.79231242       1.22995968
      31.90000000      90.00000000      45.00000000      36.79254078       1.22996731
      32.00000000      90.00000000      45.00000000      36.79276912       1.22997494
      32.10000000      90.00000000      45.00000000      36.79299744       1.22998258
      32.20000000      90.00000000      45.00000000      36.79322575       1.22999021
      32.30000000      90.00000000      45.00000000      36.79345404       1.22999784
      32.40000000      90.00000000      45.00000000      36.79368231       1.23000547
      32.50000000      90.00000000      45.00000000      36.79391057       1.23001310
      32.60000000      90.00000000      45.00000000      36.79413881       1.23002073
      32.70000000      90.00000000      45.00000000      36.79436704       1.23002836
      32.80000000      90.00000000      45.00000000      36.79459525       1.23003599
      32.90000000      90.00000000      45.00000000      36.79482344       1.23004362
      33.00000000      90.00000000      45.00000000      36.79505162       1.23005125
      33.10000000      90.00000000      45.00000000      36.79527978       1.23005888
      33.20000000      90.00000000      45.00000000      36.79550792       1.23006650
      33.30000000      90.00000000      45.00000000      36.79573605       1.23007413
      33.40000000      90.00000000      45.00000000      36.79596416       1.23008175
      33.50000000      90.00000000      45.00000000      36.79619225       1.23008938
      33.60000000      90.00000000      45.00000000      36.79642033       1.23009700
      33.70000000      90.00000000      45.00000000      36.79664839       1.23010463
      33.80000000      90.00000000      45.00000000      36.79687643       1.23011225
      33.90000000      90.00000000      45.00000000      36.79710446       1.23011987
      34.00000000      90.00000000      45.00000000      36.79733247       1.23012750
      34.10000000      90.00000000      45.00000000      36.79756047       1.23013512
      34.20000000      90.00000000      45.00000000      36.79778846       1.23014274
      34.30000000      90.00000000      45.00000000      36.79801644       1.23015036
      34.40000000      90.00000000      45.00000000      36.79824440       1.23015798
      34.50000000      90.00000000      45.00000000      36.79847235       1.23016560
      34.60000000      90.00000000      45.00000000      36.79870027       1.23017322
      34.70000000      90.00000000      45.00000000      36.79892819       1.23018084
      34.80000000      90.00000000      45.00000000      36.79915608       1.23018846
      34.90000000      90.00000000      45.00000000      36.79938396       1.23019608
      35.00000000      90.00000000      45.00000000      36.79961182       1.23020369
      35.10000000      90.00000000      45.00000000      36.79983967       1.23021131
      35.20000000      90.00000000      45.00000000      36.80006749       1.23021893
      35.30000000      90.00000000      45.00000000      36.80029531       1.23022654
      35.40000000      90.00000000      45.00000000      36.80052310       1.23023416
      35.50000000      90.00000000      45.00000000      36.80075088       1.23024177
      35.60000000      90.00000000      45.00000000      36.80097864       1.23024939
      35.70000000      90.00000000      45.00000000      36.80120639       1.23025700
      35.80000000      90.00000000      45.00000000      36.80143412       1.23026461
      35.90000000      90.00000000      45.00000000      36.80166183       1.23027223
      36.00000000      90.00000000      45.00000000      36.80188953       1.23027984
      36.10000000      90.00000000      45.00000000      36.80211721       1.23028745
      36.20000000      90.00000000      45.00000000      36.80234488       1.23029506
      36.30000000      90.00000000      45.00000000      36.80257252       1.23030267
      36.40000000      90.00000000      45.00000000      36.80280016       1.23031028
      36.50000000      90.00000000      45.00000000      36.80302777       1.23031789
      36.60000000      90.00000000      45.00000000      36.80325537       1.23032550
      36.70000000      90.00000000      45.00000000      36.80348296       1.23033311
      36.80000000      90.00000000      45.00000000      36.80371052       1.23034071
      36.90000000      90.00000000      45.00000000      36.80393807       1.23034832
      37.00000000      90.00000000      45.00000000      36.80416561       1.23035593
      37.10000000      90.00000000      45.00000000      36.80439312       1.23036353
      37.20000000      90.00000000      45.00000000      36.80462062       1.23037114
      37.30000000      90.00000000      45.00000000      36.80485204       1.23037887
      37.40000000      90.00000000      45.00000000      36.80507943       1.23038648
      37.50000000      90.00000000      45.00000000      36.80530680       1.23039408
      37.60000000      90.00000000      45.00000000      36.80553416       1.23040168
      37.70000000      90.00000000      45.00000000      36.80576150       1.23040928
      37.80000000      90.00000000      45.00000000      36.80598882       1.23041688
      37.90000000      90.00000000      45.00000000      36.80621612       1.23042448
      38.00000000      90.00000000      45.00000000      36.80644341       1.23043207
      38.10000000      90.00000000      45.00000000      36.80667068       1.23043967
      38.20000000      90.00000000      45.00000000      36.80689792       1.23044727
      38.30000000      90.00000000      45.00000000      36.80712515       1.23045486
      38.40000000      90.00000000      45.00000000      36.80735237       1.23046246
      38.50000000      90.00000000      45.00000000      36.80757956       1.23047005
      38.60000000      90.00000000      45.00000000      36.80780674       1.23047765
      38.70000000      90.00000000      45.00000000      36.80803389       1.23048524
      38.80000000      90.00000000      45.00000000      36.80826103       1.23049284
      38.90000000      90.00000000      45.00000000      36.80848815       1.23050043
      39.00000000      90.00000000      45.00000000      36.80871525       1.23050802
      39.10000000      90.00000000      45.00000000      36.80894233       1.23051561
      39.20000000      90.00000000      45.00000000      36.80916940       1.23052320
      39.30000000      90.00000000      45.00000000      36.80939644       1.23053079
      39.40000000      90.00000000      45.00000000      36.80962347       1.23053838
      39.50000000      90.00000000      45.00000000      36.80985048       1.23054597
      39.60000000      90.00000000      45.00000000      36.81007747       1.23055356
      39.70000000      90.00000000      45.00000000      36.81030445       1.23056115
      39.80000000      90.00000000      45.00000000      36.81053140       1.23056873
      39.90000000      90.00000000      45.00000000      36.81075834       1.23057632
      40.00000000      90.00000000      45.00000000      36.81098526       1.23058391
