 # applied field (T), theta (degree), phi (degree), abs [muB/unitcell], abs [T]
       0.00000000       0.00000000       0.00000000      36.72368026       1.22766532
       0.10000000       1.25857395      45.00000000      36.72363883       1.22766393
       0.20000000       2.45998094      45.00000000      36.72352265       1.22766005
       0.30000000       3.71858262      45.00000000      36.72332044       1.22765329
       0.40000000       4.97721253      45.00000000      36.72303707       1.22764382
       0.50000000       6.23588000      45.00000000      36.72267389       1.22763168
       0.60000000       7.49459413      45.00000000      36.72223260       1.22761692
       0.70000000       8.75336379      45.00000000      36.72171529       1.22759963
       0.80000000      10.01219751      45.00000000      36.72112436       1.22757987
       0.90000000      11.32829680      45.00000000      36.72042864       1.22755662
       1.00000000      12.64448424      45.00000000      36.71965848       1.22753087
       1.10000000      13.96076827      45.00000000      36.71881776       1.22750277
       1.20000000      15.27715671      45.00000000      36.71791068       1.22747244
       1.30000000      16.65086908      45.00000000      36.71689517       1.22743849
       1.40000000      18.02471089      45.00000000      36.71581720       1.22740246
       1.50000000      19.45591310      45.00000000      36.71463059       1.22736279
       1.60000000      20.88727007      45.00000000      36.71338863       1.22732127
       1.70000000      22.37602524      45.00000000      36.71204190       1.22727625
       1.80000000      23.86495944      45.00000000      36.71065030       1.22722973
       1.90000000      25.41132930      45.00000000      36.70916227       1.22717998
       2.00000000      27.01516070      45.00000000      36.70758237       1.22712717
       2.10000000      28.67647944      45.00000000      36.70591709       1.22707150
       2.20000000      30.39531069      45.00000000      36.70417496       1.22701326
       2.30000000      32.22896560      45.00000000      36.70230400       1.22695071
       2.40000000      34.06290094      45.00000000      36.70044220       1.22688847
       2.50000000      36.06902594      45.00000000      36.69841866       1.22682083
       2.60000000      38.13278245      45.00000000      36.69637764       1.22675260
       2.70000000      40.36883170      45.00000000      36.69422300       1.22668057
       2.80000000      42.77723553      45.00000000      36.69199078       1.22660595
       2.90000000      45.41539020      45.00000000      36.68967167       1.22652842
       3.00000000      48.28336014      45.00000000      36.68732672       1.22645003
       3.10000000      51.55327531      45.00000000      36.68489383       1.22636870
       3.20000000      55.33995918      45.00000000      36.68242070       1.22628602
       3.30000000      59.98774026      45.00000000      36.67989548       1.22620160
       3.40000000      66.12787825      45.00000000      36.67738470       1.22611767
       3.50000000      76.28520165      45.00000000      36.67495478       1.22603644
       3.60000000      90.00000000      45.00000000      36.67413073       1.22600889
       3.70000000      90.00000000      45.00000000      36.67438063       1.22601724
       3.80000000      90.00000000      45.00000000      36.67463050       1.22602559
       3.90000000      90.00000000      45.00000000      36.67488036       1.22603395
       4.00000000      90.00000000      45.00000000      36.67513019       1.22604230
       4.10000000      90.00000000      45.00000000      36.67537999       1.22605065
       4.20000000      90.00000000      45.00000000      36.67562978       1.22605900
       4.30000000      90.00000000      45.00000000      36.67587954       1.22606735
       4.40000000      90.00000000      45.00000000      36.67612928       1.22607570
       4.50000000      90.00000000      45.00000000      36.67637900       1.22608405
       4.60000000      90.00000000      45.00000000      36.67662870       1.22609239
       4.70000000      90.00000000      45.00000000      36.67687837       1.22610074
       4.80000000      90.00000000      45.00000000      36.67712803       1.22610909
       4.90000000      90.00000000      45.00000000      36.67737766       1.22611743
       5.00000000      90.00000000      45.00000000      36.67762726       1.22612578
       5.10000000      90.00000000      45.00000000      36.67787685       1.22613412
       5.20000000      90.00000000      45.00000000      36.67812641       1.22614246
       5.30000000      90.00000000      45.00000000      36.67837595       1.22615080
       5.40000000      90.00000000      45.00000000      36.67862547       1.22615915
       5.50000000      90.00000000      45.00000000      36.67887497       1.22616749
       5.60000000      90.00000000      45.00000000      36.67912444       1.22617583
       5.70000000      90.00000000      45.00000000      36.67937390       1.22618417
       5.80000000      90.00000000      45.00000000      36.67962333       1.22619250
       5.90000000      90.00000000      45.00000000      36.67987274       1.22620084
       6.00000000      90.00000000      45.00000000      36.68012212       1.22620918
       6.10000000      90.00000000      45.00000000      36.68037149       1.22621751
       6.20000000      90.00000000      45.00000000      36.68062083       1.22622585
       6.30000000      90.00000000      45.00000000      36.68087015       1.22623418
       6.40000000      90.00000000      45.00000000      36.68111945       1.22624252
       6.50000000      90.00000000      45.00000000      36.68136872       1.22625085
       6.60000000      90.00000000      45.00000000      36.68161798       1.22625918
       6.70000000      90.00000000      45.00000000      36.68186721       1.22626752
       6.80000000      90.00000000      45.00000000      36.68211642       1.22627585
       6.90000000      90.00000000      45.00000000      36.68236561       1.22628418
       7.00000000      90.00000000      45.00000000      36.68261477       1.22629251
       7.10000000      90.00000000      45.00000000      36.68286392       1.22630084
       7.20000000      90.00000000      45.00000000      36.68311304       1.22630916
       7.30000000      90.00000000      45.00000000      36.68336214       1.22631749
       7.40000000      90.00000000      45.00000000      36.68361122       1.22632582
       7.50000000      90.00000000      45.00000000      36.68386027       1.22633414
       7.60000000      90.00000000      45.00000000      36.68410931       1.22634247
       7.70000000      90.00000000      45.00000000      36.68435832       1.22635079
       7.80000000      90.00000000      45.00000000      36.68460731       1.22635912
       7.90000000      90.00000000      45.00000000      36.68485628       1.22636744
       8.00000000      90.00000000      45.00000000      36.68510522       1.22637576
       8.10000000      90.00000000      45.00000000      36.68535415       1.22638408
       8.20000000      90.00000000      45.00000000      36.68560305       1.22639240
       8.30000000      90.00000000      45.00000000      36.68585193       1.22640072
       8.40000000      90.00000000      45.00000000      36.68610079       1.22640904
       8.50000000      90.00000000      45.00000000      36.68634962       1.22641736
       8.60000000      90.00000000      45.00000000      36.68659844       1.22642568
       8.70000000      90.00000000      45.00000000      36.68684723       1.22643400
       8.80000000      90.00000000      45.00000000      36.68709600       1.22644231
       8.90000000      90.00000000      45.00000000      36.68734475       1.22645063
       9.00000000      90.00000000      45.00000000      36.68759348       1.22645894
       9.10000000      90.00000000      45.00000000      36.68784218       1.22646726
       9.20000000      90.00000000      45.00000000      36.68809087       1.22647557
       9.30000000      90.00000000      45.00000000      36.68833953       1.22648388
       9.40000000      90.00000000      45.00000000      36.68858817       1.22649220
       9.50000000      90.00000000      45.00000000      36.68883679       1.22650051
       9.60000000      90.00000000      45.00000000      36.68908538       1.22650882
       9.70000000      90.00000000      45.00000000      36.68933396       1.22651713
       9.80000000      90.00000000      45.00000000      36.68958251       1.22652544
       9.90000000      90.00000000      45.00000000      36.68983104       1.22653375
      10.00000000      90.00000000      45.00000000      36.69007955       1.22654205
      10.10000000      90.00000000      45.00000000      36.69032804       1.22655036
      10.20000000      90.00000000      45.00000000      36.69057650       1.22655867
      10.30000000      90.00000000      45.00000000      36.69082495       1.22656697
      10.40000000      90.00000000      45.00000000      36.69107337       1.22657528
      10.50000000      90.00000000      45.00000000      36.69132177       1.22658358
      10.60000000      90.00000000      45.00000000      36.69157015       1.22659188
      10.70000000      90.00000000      45.00000000      36.69181851       1.22660019
      10.80000000      90.00000000      45.00000000      36.69206684       1.22660849
      10.90000000      90.00000000      45.00000000      36.69231515       1.22661679
      11.00000000      90.00000000      45.00000000      36.69256345       1.22662509
      11.10000000      90.00000000      45.00000000      36.69281172       1.22663339
      11.20000000      90.00000000      45.00000000      36.69305997       1.22664169
      11.30000000      90.00000000      45.00000000      36.69330819       1.22664999
      11.40000000      90.00000000      45.00000000      36.69355640       1.22665828
      11.50000000      90.00000000      45.00000000      36.69380458       1.22666658
      11.60000000      90.00000000      45.00000000      36.69405274       1.22667488
      11.70000000      90.00000000      45.00000000      36.69430088       1.22668317
      11.80000000      90.00000000      45.00000000      36.69454900       1.22669147
      11.90000000      90.00000000      45.00000000      36.69479710       1.22669976
      12.00000000      90.00000000      45.00000000      36.69504518       1.22670805
      12.10000000      90.00000000      45.00000000      36.69529323       1.22671635
      12.20000000      90.00000000      45.00000000      36.69554126       1.22672464
      12.30000000      90.00000000      45.00000000      36.69578927       1.22673293
      12.40000000      90.00000000      45.00000000      36.69603726       1.22674122
      12.50000000      90.00000000      45.00000000      36.69628523       1.22674951
      12.60000000      90.00000000      45.00000000      36.69653318       1.22675780
      12.70000000      90.00000000      45.00000000      36.69678110       1.22676608
      12.80000000      90.00000000      45.00000000      36.69702901       1.22677437
      12.90000000      90.00000000      45.00000000      36.69727689       1.22678266
      13.00000000      90.00000000      45.00000000      36.69752475       1.22679094
      13.10000000      90.00000000      45.00000000      36.69777259       1.22679923
      13.20000000      90.00000000      45.00000000      36.69802040       1.22680751
      13.30000000      90.00000000      45.00000000      36.69826820       1.22681580
      13.40000000      90.00000000      45.00000000      36.69851597       1.22682408
      13.50000000      90.00000000      45.00000000      36.69876373       1.22683236
      13.60000000      90.00000000      45.00000000      36.69901146       1.22684064
      13.70000000      90.00000000      45.00000000      36.69925917       1.22684893
      13.80000000      90.00000000      45.00000000      36.69950686       1.22685721
      13.90000000      90.00000000      45.00000000      36.69975452       1.22686549
      14.00000000      90.00000000      45.00000000      36.70000217       1.22687376
      14.10000000      90.00000000      45.00000000      36.70024979       1.22688204
      14.20000000      90.00000000      45.00000000      36.70049740       1.22689032
      14.30000000      90.00000000      45.00000000      36.70074498       1.22689860
      14.40000000      90.00000000      45.00000000      36.70099254       1.22690687
      14.50000000      90.00000000      45.00000000      36.70124008       1.22691515
      14.60000000      90.00000000      45.00000000      36.70148760       1.22692342
      14.70000000      90.00000000      45.00000000      36.70173509       1.22693170
      14.80000000      90.00000000      45.00000000      36.70198257       1.22693997
      14.90000000      90.00000000      45.00000000      36.70223002       1.22694824
      15.00000000      90.00000000      45.00000000      36.70247745       1.22695651
      15.10000000      90.00000000      45.00000000      36.70272486       1.22696478
      15.20000000      90.00000000      45.00000000      36.70297225       1.22697305
      15.30000000      90.00000000      45.00000000      36.70321962       1.22698132
      15.40000000      90.00000000      45.00000000      36.70346697       1.22698959
      15.50000000      90.00000000      45.00000000      36.70371429       1.22699786
      15.60000000      90.00000000      45.00000000      36.70396160       1.22700613
      15.70000000      90.00000000      45.00000000      36.70420888       1.22701439
      15.80000000      90.00000000      45.00000000      36.70445614       1.22702266
      15.90000000      90.00000000      45.00000000      36.70470338       1.22703092
      16.00000000      90.00000000      45.00000000      36.70495060       1.22703919
      16.10000000      90.00000000      45.00000000      36.70519780       1.22704745
      16.20000000      90.00000000      45.00000000      36.70544498       1.22705572
      16.30000000      90.00000000      45.00000000      36.70569213       1.22706398
      16.40000000      90.00000000      45.00000000      36.70593926       1.22707224
      16.50000000      90.00000000      45.00000000      36.70618638       1.22708050
      16.60000000      90.00000000      45.00000000      36.70643347       1.22708876
      16.70000000      90.00000000      45.00000000      36.70668054       1.22709702
      16.80000000      90.00000000      45.00000000      36.70692759       1.22710528
      16.90000000      90.00000000      45.00000000      36.70717462       1.22711354
      17.00000000      90.00000000      45.00000000      36.70742163       1.22712180
      17.10000000      90.00000000      45.00000000      36.70766861       1.22713005
      17.20000000      90.00000000      45.00000000      36.70791558       1.22713831
      17.30000000      90.00000000      45.00000000      36.70816252       1.22714656
      17.40000000      90.00000000      45.00000000      36.70840944       1.22715482
      17.50000000      90.00000000      45.00000000      36.70865634       1.22716307
      17.60000000      90.00000000      45.00000000      36.70890322       1.22717132
      17.70000000      90.00000000      45.00000000      36.70915008       1.22717958
      17.80000000      90.00000000      45.00000000      36.70939692       1.22718783
      17.90000000      90.00000000      45.00000000      36.70964374       1.22719608
      18.00000000      90.00000000      45.00000000      36.70989054       1.22720433
      18.10000000      90.00000000      45.00000000      36.71013731       1.22721258
      18.20000000      90.00000000      45.00000000      36.71038406       1.22722083
      18.30000000      90.00000000      45.00000000      36.71063080       1.22722908
      18.40000000      90.00000000      45.00000000      36.71087751       1.22723732
      18.50000000      90.00000000      45.00000000      36.71112420       1.22724557
      18.60000000      90.00000000      45.00000000      36.71137087       1.22725382
      18.70000000      90.00000000      45.00000000      36.71161752       1.22726206
      18.80000000      90.00000000      45.00000000      36.71186415       1.22727031
      18.90000000      90.00000000      45.00000000      36.71211075       1.22727855
      19.00000000      90.00000000      45.00000000      36.71235734       1.22728680
      19.10000000      90.00000000      45.00000000      36.71260390       1.22729504
      19.20000000      90.00000000      45.00000000      36.71285045       1.22730328
      19.30000000      90.00000000      45.00000000      36.71309697       1.22731152
      19.40000000      90.00000000      45.00000000      36.71334347       1.22731976
      19.50000000      90.00000000      45.00000000      36.71358995       1.22732800
      19.60000000      90.00000000      45.00000000      36.71383641       1.22733624
      19.70000000      90.00000000      45.00000000      36.71408285       1.22734448
      19.80000000      90.00000000      45.00000000      36.71432927       1.22735272
      19.90000000      90.00000000      45.00000000      36.71457567       1.22736095
      20.00000000      90.00000000      45.00000000      36.71482204       1.22736919
      20.10000000      90.00000000      45.00000000      36.71506840       1.22737743
      20.20000000      90.00000000      45.00000000      36.71531473       1.22738566
      20.30000000      90.00000000      45.00000000      36.71556105       1.22739389
      20.40000000      90.00000000      45.00000000      36.71580734       1.22740213
      20.50000000      90.00000000      45.00000000      36.71605361       1.22741036
      20.60000000      90.00000000      45.00000000      36.71629986       1.22741859
      20.70000000      90.00000000      45.00000000      36.71654609       1.22742682
      20.80000000      90.00000000      45.00000000      36.71679230       1.22743506
      20.90000000      90.00000000      45.00000000      36.71703849       1.22744329
      21.00000000      90.00000000      45.00000000      36.71728466       1.22745151
      21.10000000      90.00000000      45.00000000      36.71753081       1.22745974
      21.20000000      90.00000000      45.00000000      36.71777693       1.22746797
      21.30000000      90.00000000      45.00000000      36.71802304       1.22747620
      21.40000000      90.00000000      45.00000000      36.71826912       1.22748442
      21.50000000      90.00000000      45.00000000      36.71851519       1.22749265
      21.60000000      90.00000000      45.00000000      36.71876123       1.22750088
      21.70000000      90.00000000      45.00000000      36.71900725       1.22750910
      21.80000000      90.00000000      45.00000000      36.71925326       1.22751732
      21.90000000      90.00000000      45.00000000      36.71949924       1.22752555
      22.00000000      90.00000000      45.00000000      36.71974520       1.22753377
      22.10000000      90.00000000      45.00000000      36.71999114       1.22754199
      22.20000000      90.00000000      45.00000000      36.72023705       1.22755021
      22.30000000      90.00000000      45.00000000      36.72048295       1.22755843
      22.40000000      90.00000000      45.00000000      36.72072883       1.22756665
      22.50000000      90.00000000      45.00000000      36.72097469       1.22757487
      22.60000000      90.00000000      45.00000000      36.72122052       1.22758309
      22.70000000      90.00000000      45.00000000      36.72146634       1.22759131
      22.80000000      90.00000000      45.00000000      36.72171213       1.22759952
      22.90000000      90.00000000      45.00000000      36.72195791       1.22760774
      23.00000000      90.00000000      45.00000000      36.72220366       1.22761596
      23.10000000      90.00000000      45.00000000      36.72244939       1.22762417
      23.20000000      90.00000000      45.00000000      36.72269510       1.22763238
      23.30000000      90.00000000      45.00000000      36.72294080       1.22764060
      23.40000000      90.00000000      45.00000000      36.72318647       1.22764881
      23.50000000      90.00000000      45.00000000      36.72343212       1.22765702
      23.60000000      90.00000000      45.00000000      36.72367775       1.22766523
      23.70000000      90.00000000      45.00000000      36.72392336       1.22767344
      23.80000000      90.00000000      45.00000000      36.72416894       1.22768165
      23.90000000      90.00000000      45.00000000      36.72441451       1.22768986
      24.00000000      90.00000000      45.00000000      36.72466006       1.22769807
      24.10000000      90.00000000      45.00000000      36.72490559       1.22770628
      24.20000000      90.00000000      45.00000000      36.72515109       1.22771449
      24.30000000      90.00000000      45.00000000      36.72539658       1.22772269
      24.40000000      90.00000000      45.00000000      36.72564204       1.22773090
      24.50000000      90.00000000      45.00000000      36.72588749       1.22773911
      24.60000000      90.00000000      45.00000000      36.72613291       1.22774731
      24.70000000      90.00000000      45.00000000      36.72637832       1.22775551
      24.80000000      90.00000000      45.00000000      36.72662370       1.22776372
      24.90000000      90.00000000      45.00000000      36.72686906       1.22777192
      25.00000000      90.00000000      45.00000000      36.72711441       1.22778012
      25.10000000      90.00000000      45.00000000      36.72735973       1.22778832
      25.20000000      90.00000000      45.00000000      36.72760503       1.22779652
      25.30000000      90.00000000      45.00000000      36.72785031       1.22780472
      25.40000000      90.00000000      45.00000000      36.72809557       1.22781292
      25.50000000      90.00000000      45.00000000      36.72834081       1.22782112
      25.60000000      90.00000000      45.00000000      36.72858603       1.22782932
      25.70000000      90.00000000      45.00000000      36.72883123       1.22783751
      25.80000000      90.00000000      45.00000000      36.72907641       1.22784571
      25.90000000      90.00000000      45.00000000      36.72932157       1.22785391
      26.00000000      90.00000000      45.00000000      36.72956670       1.22786210
      26.10000000      90.00000000      45.00000000      36.72981182       1.22787029
      26.20000000      90.00000000      45.00000000      36.73005692       1.22787849
      26.30000000      90.00000000      45.00000000      36.73030200       1.22788668
      26.40000000      90.00000000      45.00000000      36.73054705       1.22789487
      26.50000000      90.00000000      45.00000000      36.73079209       1.22790307
      26.60000000      90.00000000      45.00000000      36.73103711       1.22791126
      26.70000000      90.00000000      45.00000000      36.73128210       1.22791945
      26.80000000      90.00000000      45.00000000      36.73152708       1.22792764
      26.90000000      90.00000000      45.00000000      36.73177203       1.22793582
      27.00000000      90.00000000      45.00000000      36.73201697       1.22794401
      27.10000000      90.00000000      45.00000000      36.73226188       1.22795220
      27.20000000      90.00000000      45.00000000      36.73250678       1.22796039
      27.30000000      90.00000000      45.00000000      36.73275165       1.22796857
      27.40000000      90.00000000      45.00000000      36.73299650       1.22797676
      27.50000000      90.00000000      45.00000000      36.73324134       1.22798494
      27.60000000      90.00000000      45.00000000      36.73348615       1.22799313
      27.70000000      90.00000000      45.00000000      36.73373094       1.22800131
      27.80000000      90.00000000      45.00000000      36.73397572       1.22800949
      27.90000000      90.00000000      45.00000000      36.73422047       1.22801768
      28.00000000      90.00000000      45.00000000      36.73446520       1.22802586
      28.10000000      90.00000000      45.00000000      36.73470991       1.22803404
      28.20000000      90.00000000      45.00000000      36.73495460       1.22804222
      28.30000000      90.00000000      45.00000000      36.73519928       1.22805040
      28.40000000      90.00000000      45.00000000      36.73544393       1.22805858
      28.50000000      90.00000000      45.00000000      36.73568856       1.22806675
      28.60000000      90.00000000      45.00000000      36.73593317       1.22807493
      28.70000000      90.00000000      45.00000000      36.73617776       1.22808311
      28.80000000      90.00000000      45.00000000      36.73642233       1.22809128
      28.90000000      90.00000000      45.00000000      36.73666688       1.22809946
      29.00000000      90.00000000      45.00000000      36.73691141       1.22810763
      29.10000000      90.00000000      45.00000000      36.73715592       1.22811581
      29.20000000      90.00000000      45.00000000      36.73740041       1.22812398
      29.30000000      90.00000000      45.00000000      36.73764488       1.22813215
      29.40000000      90.00000000      45.00000000      36.73788933       1.22814032
      29.50000000      90.00000000      45.00000000      36.73813376       1.22814850
      29.60000000      90.00000000      45.00000000      36.73837817       1.22815667
      29.70000000      90.00000000      45.00000000      36.73862256       1.22816484
      29.80000000      90.00000000      45.00000000      36.73886693       1.22817301
      29.90000000      90.00000000      45.00000000      36.73911128       1.22818117
      30.00000000      90.00000000      45.00000000      36.73935561       1.22818934
      30.10000000      90.00000000      45.00000000      36.73959992       1.22819751
      30.20000000      90.00000000      45.00000000      36.73984421       1.22820568
      30.30000000      90.00000000      45.00000000      36.74008848       1.22821384
      30.40000000      90.00000000      45.00000000      36.74033273       1.22822201
      30.50000000      90.00000000      45.00000000      36.74057696       1.22823017
      30.60000000      90.00000000      45.00000000      36.74082117       1.22823834
      30.70000000      90.00000000      45.00000000      36.74106536       1.22824650
      30.80000000      90.00000000      45.00000000      36.74130953       1.22825466
      30.90000000      90.00000000      45.00000000      36.74155368       1.22826282
      31.00000000      90.00000000      45.00000000      36.74179781       1.22827098
      31.10000000      90.00000000      45.00000000      36.74204192       1.22827914
      31.20000000      90.00000000      45.00000000      36.74228601       1.22828730
      31.30000000      90.00000000      45.00000000      36.74253008       1.22829546
      31.40000000      90.00000000      45.00000000      36.74277413       1.22830362
      31.50000000      90.00000000      45.00000000      36.74301816       1.22831178
      31.60000000      90.00000000      45.00000000      36.74326217       1.22831994
      31.70000000      90.00000000      45.00000000      36.74350616       1.22832809
      31.80000000      90.00000000      45.00000000      36.74375013       1.22833625
      31.90000000      90.00000000      45.00000000      36.74399409       1.22834441
      32.00000000      90.00000000      45.00000000      36.74423802       1.22835256
      32.10000000      90.00000000      45.00000000      36.74448193       1.22836071
      32.20000000      90.00000000      45.00000000      36.74472582       1.22836887
      32.30000000      90.00000000      45.00000000      36.74496969       1.22837702
      32.40000000      90.00000000      45.00000000      36.74521354       1.22838517
      32.50000000      90.00000000      45.00000000      36.74545737       1.22839332
      32.60000000      90.00000000      45.00000000      36.74570119       1.22840147
      32.70000000      90.00000000      45.00000000      36.74594498       1.22840962
      32.80000000      90.00000000      45.00000000      36.74618875       1.22841777
      32.90000000      90.00000000      45.00000000      36.74643250       1.22842592
      33.00000000      90.00000000      45.00000000      36.74667624       1.22843407
      33.10000000      90.00000000      45.00000000      36.74691995       1.22844222
      33.20000000      90.00000000      45.00000000      36.74716364       1.22845036
      33.30000000      90.00000000      45.00000000      36.74740731       1.22845851
      33.40000000      90.00000000      45.00000000      36.74765097       1.22846665
      33.50000000      90.00000000      45.00000000      36.74789460       1.22847480
      33.60000000      90.00000000      45.00000000      36.74813822       1.22848294
      33.70000000      90.00000000      45.00000000      36.74838181       1.22849109
      33.80000000      90.00000000      45.00000000      36.74862539       1.22849923
      33.90000000      90.00000000      45.00000000      36.74886894       1.22850737
      34.00000000      90.00000000      45.00000000      36.74911248       1.22851551
      34.10000000      90.00000000      45.00000000      36.74935599       1.22852365
      34.20000000      90.00000000      45.00000000      36.74959949       1.22853179
      34.30000000      90.00000000      45.00000000      36.74984296       1.22853993
      34.40000000      90.00000000      45.00000000      36.75008642       1.22854807
      34.50000000      90.00000000      45.00000000      36.75032986       1.22855621
      34.60000000      90.00000000      45.00000000      36.75057328       1.22856435
      34.70000000      90.00000000      45.00000000      36.75081667       1.22857248
      34.80000000      90.00000000      45.00000000      36.75106005       1.22858062
      34.90000000      90.00000000      45.00000000      36.75130341       1.22858875
      35.00000000      90.00000000      45.00000000      36.75154675       1.22859689
      35.10000000      90.00000000      45.00000000      36.75179007       1.22860502
      35.20000000      90.00000000      45.00000000      36.75203337       1.22861316
      35.30000000      90.00000000      45.00000000      36.75227665       1.22862129
      35.40000000      90.00000000      45.00000000      36.75251991       1.22862942
      35.50000000      90.00000000      45.00000000      36.75276315       1.22863755
      35.60000000      90.00000000      45.00000000      36.75300637       1.22864568
      35.70000000      90.00000000      45.00000000      36.75324957       1.22865381
      35.80000000      90.00000000      45.00000000      36.75349276       1.22866194
      35.90000000      90.00000000      45.00000000      36.75373592       1.22867007
      36.00000000      90.00000000      45.00000000      36.75397906       1.22867820
      36.10000000      90.00000000      45.00000000      36.75422219       1.22868633
      36.20000000      90.00000000      45.00000000      36.75446529       1.22869446
      36.30000000      90.00000000      45.00000000      36.75470838       1.22870258
      36.40000000      90.00000000      45.00000000      36.75495144       1.22871071
      36.50000000      90.00000000      45.00000000      36.75519449       1.22871883
      36.60000000      90.00000000      45.00000000      36.75543751       1.22872696
      36.70000000      90.00000000      45.00000000      36.75568052       1.22873508
      36.80000000      90.00000000      45.00000000      36.75592351       1.22874320
      36.90000000      90.00000000      45.00000000      36.75616648       1.22875133
      37.00000000      90.00000000      45.00000000      36.75640943       1.22875945
      37.10000000      90.00000000      45.00000000      36.75665236       1.22876757
      37.20000000      90.00000000      45.00000000      36.75689527       1.22877569
      37.30000000      90.00000000      45.00000000      36.75713816       1.22878381
      37.40000000      90.00000000      45.00000000      36.75738103       1.22879193
      37.50000000      90.00000000      45.00000000      36.75762388       1.22880005
      37.60000000      90.00000000      45.00000000      36.75786671       1.22880816
      37.70000000      90.00000000      45.00000000      36.75810952       1.22881628
      37.80000000      90.00000000      45.00000000      36.75835232       1.22882440
      37.90000000      90.00000000      45.00000000      36.75859509       1.22883251
      38.00000000      90.00000000      45.00000000      36.75883785       1.22884063
      38.10000000      90.00000000      45.00000000      36.75908058       1.22884874
      38.20000000      90.00000000      45.00000000      36.75932330       1.22885686
      38.30000000      90.00000000      45.00000000      36.75956600       1.22886497
      38.40000000      90.00000000      45.00000000      36.75980867       1.22887308
      38.50000000      90.00000000      45.00000000      36.76005133       1.22888120
      38.60000000      90.00000000      45.00000000      36.76029397       1.22888931
      38.70000000      90.00000000      45.00000000      36.76053659       1.22889742
      38.80000000      90.00000000      45.00000000      36.76077919       1.22890553
      38.90000000      90.00000000      45.00000000      36.76102177       1.22891364
      39.00000000      90.00000000      45.00000000      36.76126433       1.22892175
      39.10000000      90.00000000      45.00000000      36.76150688       1.22892985
      39.20000000      90.00000000      45.00000000      36.76174940       1.22893796
      39.30000000      90.00000000      45.00000000      36.76199190       1.22894607
      39.40000000      90.00000000      45.00000000      36.76223439       1.22895417
      39.50000000      90.00000000      45.00000000      36.76247685       1.22896228
      39.60000000      90.00000000      45.00000000      36.76271930       1.22897039
      39.70000000      90.00000000      45.00000000      36.76296173       1.22897849
      39.80000000      90.00000000      45.00000000      36.76320414       1.22898659
      39.90000000      90.00000000      45.00000000      36.76344653       1.22899470
      40.00000000      90.00000000      45.00000000      36.76368890       1.22900280
