 # applied field (T), theta (degree), phi (degree), abs for RE 3-4
     0.00000     0.40003   135.00000     3.45548     0.40003    45.00000     3.45548
     0.10000     1.06505    67.08167     3.45580     1.43829    45.00000     3.45581
     0.20000     2.01443    56.47344     3.45597     2.47648    45.00000     3.45604
     0.30000     2.98892    52.70949     3.45598     3.51474    45.00000     3.45616
     0.40000     3.97062    50.79893     3.45583     4.55319    45.00000     3.45619
     0.50000     5.00756    49.59715     3.45547     5.64651    45.00000     3.45611
     0.60000     5.99517    48.83958     3.45496     6.68581    45.00000     3.45594
     0.70000     6.98467    48.29531     3.45426     7.72572    45.00000     3.45568
     0.80000     8.02799    47.86645     3.45332     8.82098    45.00000     3.45530
     0.90000     9.07324    47.53530     3.45217     9.91719    45.00000     3.45483
     1.00000    10.06822    47.28358     3.45087    10.95974    45.00000     3.45430
     1.10000    11.11740    47.06653     3.44929    12.05816    45.00000     3.45365
     1.20000    12.22121    46.87797     3.44738    13.21276    45.00000     3.45288
     1.30000    13.27490    46.72681     3.44532    14.31396    45.00000     3.45207
     1.40000    14.38366    46.59123     3.44291    15.47171    45.00000     3.45114
     1.50000    15.49514    46.47436     3.44022    16.63123    45.00000     3.45013
     1.60000    16.60944    46.37249     3.43726    17.79261    45.00000     3.44905
     1.70000    17.77982    46.27880     3.43387    19.01123    45.00000     3.44786
     1.80000    18.95357    46.19603     3.43017    20.23205    45.00000     3.44660
     1.90000    20.18427    46.11914     3.42597    21.51066    45.00000     3.44523
     2.00000    21.41893    46.05044     3.42144    22.79179    45.00000     3.44381
     2.10000    22.71152    45.98606     3.41635    24.13124    45.00000     3.44228
     2.20000    24.00876    45.92796     3.41089    25.47351    45.00000     3.44072
     2.30000    25.36504    45.87311     3.40483    26.87458    45.00000     3.43907
     2.40000    26.72673    45.82318     3.39838    28.27869    45.00000     3.43740
     2.50000    28.20344    45.77399     3.39099    29.79827    45.00000     3.43558
     2.60000    29.74190    45.72740     3.38290    31.37764    45.00000     3.43370
     2.70000    31.28795    45.68468     3.37438    32.96058    45.00000     3.43184
     2.80000    32.95296    45.64261     3.36482    34.66019    45.00000     3.42987
     2.90000    34.73911    45.60135     3.35418    36.47703    45.00000     3.42782
     3.00000    36.59254    45.56217     3.34279    38.35471    45.00000     3.42577
     3.10000    38.62804    45.52278     3.32998    40.40726    45.00000     3.42362
     3.20000    40.79253    45.48445     3.31616    42.57818    45.00000     3.42146
     3.30000    43.14653    45.44632     3.30105    44.92480    45.00000     3.41926
     3.40000    45.75259    45.40773     3.28445    47.50468    45.00000     3.41703
     3.50000    48.67543    45.36827     3.26631    50.37544    45.00000     3.41475
     3.60000    52.10042    45.32626     3.24609    53.70958    45.00000     3.41236
     3.70000    56.21960    45.28060     3.22381    57.67980    45.00000     3.40982
     3.80000    61.41219    45.22888     3.19963    62.63132    45.00000     3.40696
     3.90000    68.86304    45.16273     3.17370    69.65919    45.00000     3.40308
     4.00000    90.00000    45.00000     3.15874    89.44057    45.00000     3.38949
     4.10000    90.00000    45.00000     3.15886    89.44058    45.00000     3.38960
     4.20000    90.00000    45.00000     3.15899    89.44059    45.00000     3.38972
     4.30000    90.00000    45.00000     3.15912    89.44059    45.00000     3.38983
     4.40000    90.00000    45.00000     3.15925    89.44060    45.00000     3.38995
     4.50000    90.00000    45.00000     3.15937    89.44061    45.00000     3.39006
     4.60000    90.00000    45.00000     3.15950    89.44062    45.00000     3.39017
     4.70000    90.00000    45.00000     3.15963    89.44063    45.00000     3.39029
     4.80000    90.00000    45.00000     3.15975    89.44064    45.00000     3.39040
     4.90000    90.00000    45.00000     3.15988    89.44065    45.00000     3.39052
     5.00000    90.00000    45.00000     3.16001    89.44065    45.00000     3.39063
     5.10000    90.00000    45.00000     3.16014    89.44066    45.00000     3.39075
     5.20000    90.00000    45.00000     3.16026    89.44067    45.00000     3.39086
     5.30000    90.00000    45.00000     3.16039    89.44068    45.00000     3.39097
     5.40000    90.00000    45.00000     3.16052    89.44069    45.00000     3.39109
     5.50000    90.00000    45.00000     3.16064    89.44070    45.00000     3.39120
     5.60000    90.00000    45.00000     3.16077    89.44070    45.00000     3.39132
     5.70000    90.00000    45.00000     3.16090    89.44071    45.00000     3.39143
     5.80000    90.00000    45.00000     3.16103    89.44072    45.00000     3.39155
     5.90000    90.00000    45.00000     3.16115    89.44073    45.00000     3.39166
     6.00000    90.00000    45.00000     3.16128    89.44074    45.00000     3.39177
     6.10000    90.00000    45.00000     3.16141    89.44075    45.00000     3.39189
     6.20000    90.00000    45.00000     3.16153    89.44076    45.00000     3.39200
     6.30000    90.00000    45.00000     3.16166    89.44076    45.00000     3.39212
     6.40000    90.00000    45.00000     3.16179    89.44077    45.00000     3.39223
     6.50000    90.00000    45.00000     3.16191    89.44078    45.00000     3.39234
     6.60000    90.00000    45.00000     3.16204    89.44079    45.00000     3.39246
     6.70000    90.00000    45.00000     3.16217    89.44080    45.00000     3.39257
     6.80000    90.00000    45.00000     3.16229    89.44081    45.00000     3.39268
     6.90000    90.00000    45.00000     3.16242    89.44082    45.00000     3.39280
     7.00000    90.00000    45.00000     3.16255    89.44082    45.00000     3.39291
     7.10000    90.00000    45.00000     3.16267    89.44083    45.00000     3.39303
     7.20000    90.00000    45.00000     3.16280    89.44084    45.00000     3.39314
     7.30000    90.00000    45.00000     3.16293    89.44085    45.00000     3.39325
     7.40000    90.00000    45.00000     3.16305    89.44086    45.00000     3.39337
     7.50000    90.00000    45.00000     3.16318    89.44087    45.00000     3.39348
     7.60000    90.00000    45.00000     3.16330    89.44088    45.00000     3.39359
     7.70000    90.00000    45.00000     3.16343    89.44088    45.00000     3.39371
     7.80000    90.00000    45.00000     3.16356    89.44089    45.00000     3.39382
     7.90000    90.00000    45.00000     3.16368    89.44090    45.00000     3.39393
     8.00000    90.00000    45.00000     3.16381    89.44091    45.00000     3.39405
     8.10000    90.00000    45.00000     3.16394    89.44092    45.00000     3.39416
     8.20000    90.00000    45.00000     3.16406    89.44093    45.00000     3.39427
     8.30000    90.00000    45.00000     3.16419    89.44094    45.00000     3.39439
     8.40000    90.00000    45.00000     3.16431    89.44094    45.00000     3.39450
     8.50000    90.00000    45.00000     3.16444    89.44095    45.00000     3.39461
     8.60000    90.00000    45.00000     3.16457    89.44096    45.00000     3.39473
     8.70000    90.00000    45.00000     3.16469    89.44097    45.00000     3.39484
     8.80000    90.00000    45.00000     3.16482    89.44098    45.00000     3.39495
     8.90000    90.00000    45.00000     3.16494    89.44099    45.00000     3.39507
     9.00000    90.00000    45.00000     3.16507    89.44100    45.00000     3.39518
     9.10000    90.00000    45.00000     3.16520    89.44100    45.00000     3.39529
     9.20000    90.00000    45.00000     3.16532    89.44101    45.00000     3.39541
     9.30000    90.00000    45.00000     3.16545    89.44102    45.00000     3.39552
     9.40000    90.00000    45.00000     3.16558    89.44103    45.00000     3.39563
     9.50000    90.00000    45.00000     3.16570    89.44104    45.00000     3.39574
     9.60000    90.00000    45.00000     3.16583    89.44105    45.00000     3.39586
     9.70000    90.00000    45.00000     3.16595    89.44106    45.00000     3.39597
     9.80000    90.00000    45.00000     3.16608    89.44106    45.00000     3.39608
     9.90000    90.00000    45.00000     3.16620    89.44107    45.00000     3.39620
    10.00000    90.00000    45.00000     3.16633    89.44108    45.00000     3.39631
    10.10000    90.00000    45.00000     3.16646    89.44109    45.00000     3.39642
    10.20000    90.00000    45.00000     3.16658    89.44110    45.00000     3.39653
    10.30000    90.00000    45.00000     3.16671    89.44111    45.00000     3.39665
    10.40000    90.00000    45.00000     3.16683    89.44112    45.00000     3.39676
    10.50000    90.00000    45.00000     3.16696    89.44112    45.00000     3.39687
    10.60000    90.00000    45.00000     3.16708    89.44113    45.00000     3.39698
    10.70000    90.00000    45.00000     3.16721    89.44114    45.00000     3.39710
    10.80000    90.00000    45.00000     3.16733    89.44115    45.00000     3.39721
    10.90000    90.00000    45.00000     3.16746    89.44116    45.00000     3.39732
    11.00000    90.00000    45.00000     3.16759    89.44117    45.00000     3.39743
    11.10000    90.00000    45.00000     3.16771    89.44118    45.00000     3.39755
    11.20000    90.00000    45.00000     3.16784    89.44118    45.00000     3.39766
    11.30000    90.00000    45.00000     3.16796    89.44119    45.00000     3.39777
    11.40000    90.00000    45.00000     3.16809    89.44120    45.00000     3.39788
    11.50000    90.00000    45.00000     3.16821    89.44121    45.00000     3.39800
    11.60000    90.00000    45.00000     3.16834    89.44122    45.00000     3.39811
    11.70000    90.00000    45.00000     3.16846    89.44123    45.00000     3.39822
    11.80000    90.00000    45.00000     3.16859    89.44124    45.00000     3.39833
    11.90000    90.00000    45.00000     3.16871    89.44124    45.00000     3.39845
    12.00000    90.00000    45.00000     3.16884    89.44125    45.00000     3.39856
    12.10000    90.00000    45.00000     3.16896    89.44126    45.00000     3.39867
    12.20000    90.00000    45.00000     3.16909    89.44127    45.00000     3.39878
    12.30000    90.00000    45.00000     3.16921    89.44128    45.00000     3.39889
    12.40000    90.00000    45.00000     3.16934    89.44129    45.00000     3.39901
    12.50000    90.00000    45.00000     3.16946    89.44130    45.00000     3.39912
    12.60000    90.00000    45.00000     3.16959    89.44130    45.00000     3.39923
    12.70000    90.00000    45.00000     3.16971    89.44131    45.00000     3.39934
    12.80000    90.00000    45.00000     3.16984    89.44132    45.00000     3.39945
    12.90000    90.00000    45.00000     3.16996    89.44133    45.00000     3.39957
    13.00000    90.00000    45.00000     3.17009    89.44134    45.00000     3.39968
    13.10000    90.00000    45.00000     3.17021    89.44135    45.00000     3.39979
    13.20000    90.00000    45.00000     3.17034    89.44136    45.00000     3.39990
    13.30000    90.00000    45.00000     3.17046    89.44136    45.00000     3.40001
    13.40000    90.00000    45.00000     3.17059    89.44137    45.00000     3.40012
    13.50000    90.00000    45.00000     3.17071    89.44138    45.00000     3.40024
    13.60000    90.00000    45.00000     3.17084    89.44139    45.00000     3.40035
    13.70000    90.00000    45.00000     3.17096    89.44140    45.00000     3.40046
    13.80000    90.00000    45.00000     3.17108    89.44141    45.00000     3.40057
    13.90000    90.00000    45.00000     3.17121    89.44142    45.00000     3.40068
    14.00000    90.00000    45.00000     3.17133    89.44143    45.00000     3.40079
    14.10000    90.00000    45.00000     3.17146    89.44143    45.00000     3.40091
    14.20000    90.00000    45.00000     3.17158    89.44144    45.00000     3.40102
    14.30000    90.00000    45.00000     3.17171    89.44145    45.00000     3.40113
    14.40000    90.00000    45.00000     3.17183    89.44146    45.00000     3.40124
    14.50000    90.00000    45.00000     3.17196    89.44147    45.00000     3.40135
    14.60000    90.00000    45.00000     3.17208    89.44148    45.00000     3.40146
    14.70000    90.00000    45.00000     3.17220    89.44149    45.00000     3.40157
    14.80000    90.00000    45.00000     3.17233    89.44149    45.00000     3.40169
    14.90000    90.00000    45.00000     3.17245    89.44150    45.00000     3.40180
    15.00000    90.00000    45.00000     3.17258    89.44151    45.00000     3.40191
    15.10000    90.00000    45.00000     3.17270    89.44152    45.00000     3.40202
    15.20000    90.00000    45.00000     3.17283    89.44153    45.00000     3.40213
    15.30000    90.00000    45.00000     3.17295    89.44154    45.00000     3.40224
    15.40000    90.00000    45.00000     3.17307    89.44155    45.00000     3.40235
    15.50000    90.00000    45.00000     3.17320    89.44155    45.00000     3.40246
    15.60000    90.00000    45.00000     3.17332    89.44156    45.00000     3.40257
    15.70000    90.00000    45.00000     3.17345    89.44157    45.00000     3.40269
    15.80000    90.00000    45.00000     3.17357    89.44158    45.00000     3.40280
    15.90000    90.00000    45.00000     3.17369    89.44159    45.00000     3.40291
    16.00000    90.00000    45.00000     3.17382    89.44160    45.00000     3.40302
    16.10000    90.00000    45.00000     3.17394    89.44161    45.00000     3.40313
    16.20000    90.00000    45.00000     3.17406    89.44161    45.00000     3.40324
    16.30000    90.00000    45.00000     3.17419    89.44162    45.00000     3.40335
    16.40000    90.00000    45.00000     3.17431    89.44163    45.00000     3.40346
    16.50000    90.00000    45.00000     3.17444    89.44164    45.00000     3.40357
    16.60000    90.00000    45.00000     3.17456    89.44165    45.00000     3.40368
    16.70000    90.00000    45.00000     3.17468    89.44166    45.00000     3.40379
    16.80000    90.00000    45.00000     3.17481    89.44167    45.00000     3.40390
    16.90000    90.00000    45.00000     3.17493    89.44168    45.00000     3.40402
    17.00000    90.00000    45.00000     3.17505    89.44168    45.00000     3.40413
    17.10000    90.00000    45.00000     3.17518    89.44169    45.00000     3.40424
    17.20000    90.00000    45.00000     3.17530    89.44170    45.00000     3.40435
    17.30000    90.00000    45.00000     3.17543    89.44171    45.00000     3.40446
    17.40000    90.00000    45.00000     3.17555    89.44172    45.00000     3.40457
    17.50000    90.00000    45.00000     3.17567    89.44173    45.00000     3.40468
    17.60000    90.00000    45.00000     3.17580    89.44174    45.00000     3.40479
    17.70000    90.00000    45.00000     3.17592    89.44174    45.00000     3.40490
    17.80000    90.00000    45.00000     3.17604    89.44175    45.00000     3.40501
    17.90000    90.00000    45.00000     3.17617    89.44176    45.00000     3.40512
    18.00000    90.00000    45.00000     3.17629    89.44177    45.00000     3.40523
    18.10000    90.00000    45.00000     3.17641    89.44178    45.00000     3.40534
    18.20000    90.00000    45.00000     3.17654    89.44179    45.00000     3.40545
    18.30000    90.00000    45.00000     3.17666    89.44180    45.00000     3.40556
    18.40000    90.00000    45.00000     3.17678    89.44180    45.00000     3.40567
    18.50000    90.00000    45.00000     3.17690    89.44181    45.00000     3.40578
    18.60000    90.00000    45.00000     3.17703    89.44182    45.00000     3.40589
    18.70000    90.00000    45.00000     3.17715    89.44183    45.00000     3.40600
    18.80000    90.00000    45.00000     3.17727    89.44184    45.00000     3.40611
    18.90000    90.00000    45.00000     3.17740    89.44185    45.00000     3.40622
    19.00000    90.00000    45.00000     3.17752    89.44186    45.00000     3.40633
    19.10000    90.00000    45.00000     3.17764    89.44187    45.00000     3.40644
    19.20000    90.00000    45.00000     3.17777    89.44187    45.00000     3.40655
    19.30000    90.00000    45.00000     3.17789    89.44188    45.00000     3.40666
    19.40000    90.00000    45.00000     3.17801    89.44189    45.00000     3.40677
    19.50000    90.00000    45.00000     3.17814    89.44190    45.00000     3.40688
    19.60000    90.00000    45.00000     3.17826    89.44191    45.00000     3.40699
    19.70000    90.00000    45.00000     3.17838    89.44192    45.00000     3.40710
    19.80000    90.00000    45.00000     3.17850    89.44193    45.00000     3.40721
    19.90000    90.00000    45.00000     3.17863    89.44193    45.00000     3.40732
    20.00000    90.00000    45.00000     3.17875    89.44194    45.00000     3.40743
    20.10000    90.00000    45.00000     3.17887    89.44195    45.00000     3.40754
    20.20000    90.00000    45.00000     3.17899    89.44196    45.00000     3.40765
    20.30000    90.00000    45.00000     3.17912    89.44197    45.00000     3.40776
    20.40000    90.00000    45.00000     3.17924    89.44198    45.00000     3.40787
    20.50000    90.00000    45.00000     3.17936    89.44199    45.00000     3.40798
    20.60000    90.00000    45.00000     3.17948    89.44200    45.00000     3.40809
    20.70000    90.00000    45.00000     3.17961    89.44200    45.00000     3.40820
    20.80000    90.00000    45.00000     3.17973    89.44201    45.00000     3.40831
    20.90000    90.00000    45.00000     3.17985    89.44202    45.00000     3.40841
    21.00000    90.00000    45.00000     3.17997    89.44203    45.00000     3.40852
    21.10000    90.00000    45.00000     3.18010    89.44204    45.00000     3.40863
    21.20000    90.00000    45.00000     3.18022    89.44205    45.00000     3.40874
    21.30000    90.00000    45.00000     3.18034    89.44206    45.00000     3.40885
    21.40000    90.00000    45.00000     3.18046    89.44206    45.00000     3.40896
    21.50000    90.00000    45.00000     3.18058    89.44207    45.00000     3.40907
    21.60000    90.00000    45.00000     3.18071    89.44208    45.00000     3.40918
    21.70000    90.00000    45.00000     3.18083    89.44209    45.00000     3.40929
    21.80000    90.00000    45.00000     3.18095    89.44210    45.00000     3.40940
    21.90000    90.00000    45.00000     3.18107    89.44211    45.00000     3.40951
    22.00000    90.00000    45.00000     3.18120    89.44212    45.00000     3.40962
    22.10000    90.00000    45.00000     3.18132    89.44213    45.00000     3.40973
    22.20000    90.00000    45.00000     3.18144    89.44213    45.00000     3.40983
    22.30000    90.00000    45.00000     3.18156    89.44214    45.00000     3.40994
    22.40000    90.00000    45.00000     3.18168    89.44215    45.00000     3.41005
    22.50000    90.00000    45.00000     3.18181    89.44216    45.00000     3.41016
    22.60000    90.00000    45.00000     3.18193    89.44217    45.00000     3.41027
    22.70000    90.00000    45.00000     3.18205    89.44218    45.00000     3.41038
    22.80000    90.00000    45.00000     3.18217    89.44219    45.00000     3.41049
    22.90000    90.00000    45.00000     3.18229    89.44219    45.00000     3.41060
    23.00000    90.00000    45.00000     3.18241    89.44220    45.00000     3.41070
    23.10000    90.00000    45.00000     3.18254    89.44221    45.00000     3.41081
    23.20000    90.00000    45.00000     3.18266    89.44222    45.00000     3.41092
    23.30000    90.00000    45.00000     3.18278    89.44223    45.00000     3.41103
    23.40000    90.00000    45.00000     3.18290    89.44224    45.00000     3.41114
    23.50000    90.00000    45.00000     3.18302    89.44225    45.00000     3.41125
    23.60000    90.00000    45.00000     3.18314    89.44226    45.00000     3.41136
    23.70000    90.00000    45.00000     3.18327    89.44226    45.00000     3.41147
    23.80000    90.00000    45.00000     3.18339    89.44227    45.00000     3.41157
    23.90000    90.00000    45.00000     3.18351    89.44228    45.00000     3.41168
    24.00000    90.00000    45.00000     3.18363    89.44229    45.00000     3.41179
    24.10000    90.00000    45.00000     3.18375    89.44230    45.00000     3.41190
    24.20000    90.00000    45.00000     3.18387    89.44231    45.00000     3.41201
    24.30000    90.00000    45.00000     3.18399    89.44232    45.00000     3.41212
    24.40000    90.00000    45.00000     3.18412    89.44232    45.00000     3.41222
    24.50000    90.00000    45.00000     3.18424    89.44233    45.00000     3.41233
    24.60000    90.00000    45.00000     3.18436    89.44234    45.00000     3.41244
    24.70000    90.00000    45.00000     3.18448    89.44235    45.00000     3.41255
    24.80000    90.00000    45.00000     3.18460    89.44236    45.00000     3.41266
    24.90000    90.00000    45.00000     3.18472    89.44237    45.00000     3.41277
    25.00000    90.00000    45.00000     3.18484    89.44238    45.00000     3.41287
    25.10000    90.00000    45.00000     3.18496    89.44239    45.00000     3.41298
    25.20000    90.00000    45.00000     3.18509    89.44239    45.00000     3.41309
    25.30000    90.00000    45.00000     3.18521    89.44240    45.00000     3.41320
    25.40000    90.00000    45.00000     3.18533    89.44241    45.00000     3.41331
    25.50000    90.00000    45.00000     3.18545    89.44242    45.00000     3.41341
    25.60000    90.00000    45.00000     3.18557    89.44243    45.00000     3.41352
    25.70000    90.00000    45.00000     3.18569    89.44244    45.00000     3.41363
    25.80000    90.00000    45.00000     3.18581    89.44245    45.00000     3.41374
    25.90000    90.00000    45.00000     3.18593    89.44246    45.00000     3.41385
    26.00000    90.00000    45.00000     3.18605    89.44246    45.00000     3.41395
    26.10000    90.00000    45.00000     3.18618    89.44247    45.00000     3.41406
    26.20000    90.00000    45.00000     3.18630    89.44248    45.00000     3.41417
    26.30000    90.00000    45.00000     3.18642    89.44249    45.00000     3.41428
    26.40000    90.00000    45.00000     3.18654    89.44250    45.00000     3.41438
    26.50000    90.00000    45.00000     3.18666    89.44251    45.00000     3.41449
    26.60000    90.00000    45.00000     3.18678    89.44252    45.00000     3.41460
    26.70000    90.00000    45.00000     3.18690    89.44252    45.00000     3.41471
    26.80000    90.00000    45.00000     3.18702    89.44253    45.00000     3.41481
    26.90000    90.00000    45.00000     3.18714    89.44254    45.00000     3.41492
    27.00000    90.00000    45.00000     3.18726    89.44255    45.00000     3.41503
    27.10000    90.00000    45.00000     3.18738    89.44256    45.00000     3.41514
    27.20000    90.00000    45.00000     3.18750    89.44257    45.00000     3.41524
    27.30000    90.00000    45.00000     3.18762    89.44258    45.00000     3.41535
    27.40000    90.00000    45.00000     3.18774    89.44259    45.00000     3.41546
    27.50000    90.00000    45.00000     3.18786    89.44259    45.00000     3.41557
    27.60000    90.00000    45.00000     3.18798    89.44260    45.00000     3.41567
    27.70000    90.00000    45.00000     3.18810    89.44261    45.00000     3.41578
    27.80000    90.00000    45.00000     3.18822    89.44262    45.00000     3.41589
    27.90000    90.00000    45.00000     3.18834    89.44263    45.00000     3.41600
    28.00000    90.00000    45.00000     3.18846    89.44264    45.00000     3.41610
    28.10000    90.00000    45.00000     3.18858    89.44265    45.00000     3.41621
    28.20000    90.00000    45.00000     3.18871    89.44266    45.00000     3.41632
    28.30000    90.00000    45.00000     3.18883    89.44266    45.00000     3.41642
    28.40000    90.00000    45.00000     3.18895    89.44267    45.00000     3.41653
    28.50000    90.00000    45.00000     3.18907    89.44268    45.00000     3.41664
    28.60000    90.00000    45.00000     3.18919    89.44269    45.00000     3.41675
    28.70000    90.00000    45.00000     3.18931    89.44270    45.00000     3.41685
    28.80000    90.00000    45.00000     3.18943    89.44271    45.00000     3.41696
    28.90000    90.00000    45.00000     3.18955    89.44272    45.00000     3.41707
    29.00000    90.00000    45.00000     3.18967    89.44273    45.00000     3.41717
    29.10000    90.00000    45.00000     3.18979    89.44273    45.00000     3.41728
    29.20000    90.00000    45.00000     3.18991    89.44274    45.00000     3.41739
    29.30000    90.00000    45.00000     3.19002    89.44275    45.00000     3.41749
    29.40000    90.00000    45.00000     3.19014    89.44276    45.00000     3.41760
    29.50000    90.00000    45.00000     3.19026    89.44277    45.00000     3.41771
    29.60000    90.00000    45.00000     3.19038    89.44278    45.00000     3.41781
    29.70000    90.00000    45.00000     3.19050    89.44279    45.00000     3.41792
    29.80000    90.00000    45.00000     3.19062    89.44280    45.00000     3.41803
    29.90000    90.00000    45.00000     3.19074    89.44280    45.00000     3.41813
    30.00000    90.00000    45.00000     3.19086    89.44281    45.00000     3.41824
    30.10000    90.00000    45.00000     3.19098    89.44282    45.00000     3.41835
    30.20000    90.00000    45.00000     3.19110    89.44283    45.00000     3.41845
    30.30000    90.00000    45.00000     3.19122    89.44284    45.00000     3.41856
    30.40000    90.00000    45.00000     3.19134    89.44285    45.00000     3.41867
    30.50000    90.00000    45.00000     3.19146    89.44286    45.00000     3.41877
    30.60000    90.00000    45.00000     3.19158    89.44287    45.00000     3.41888
    30.70000    90.00000    45.00000     3.19170    89.44287    45.00000     3.41899
    30.80000    90.00000    45.00000     3.19182    89.44288    45.00000     3.41909
    30.90000    90.00000    45.00000     3.19194    89.44289    45.00000     3.41920
    31.00000    90.00000    45.00000     3.19206    89.44290    45.00000     3.41930
    31.10000    90.00000    45.00000     3.19218    89.44291    45.00000     3.41941
    31.20000    90.00000    45.00000     3.19230    89.44292    45.00000     3.41952
    31.30000    90.00000    45.00000     3.19242    89.44293    45.00000     3.41962
    31.40000    90.00000    45.00000     3.19253    89.44294    45.00000     3.41973
    31.50000    90.00000    45.00000     3.19265    89.44294    45.00000     3.41984
    31.60000    90.00000    45.00000     3.19277    89.44295    45.00000     3.41994
    31.70000    90.00000    45.00000     3.19289    89.44296    45.00000     3.42005
    31.80000    90.00000    45.00000     3.19301    89.44297    45.00000     3.42015
    31.90000    90.00000    45.00000     3.19313    89.44298    45.00000     3.42026
    32.00000    90.00000    45.00000     3.19325    89.44299    45.00000     3.42037
    32.10000    90.00000    45.00000     3.19337    89.44300    45.00000     3.42047
    32.20000    90.00000    45.00000     3.19349    89.44301    45.00000     3.42058
    32.30000    90.00000    45.00000     3.19361    89.44301    45.00000     3.42068
    32.40000    90.00000    45.00000     3.19372    89.44302    45.00000     3.42079
    32.50000    90.00000    45.00000     3.19384    89.44303    45.00000     3.42090
    32.60000    90.00000    45.00000     3.19396    89.44304    45.00000     3.42100
    32.70000    90.00000    45.00000     3.19408    89.44305    45.00000     3.42111
    32.80000    90.00000    45.00000     3.19420    89.44306    45.00000     3.42121
    32.90000    90.00000    45.00000     3.19432    89.44307    45.00000     3.42132
    33.00000    90.00000    45.00000     3.19444    89.44308    45.00000     3.42142
    33.10000    90.00000    45.00000     3.19456    89.44308    45.00000     3.42153
    33.20000    90.00000    45.00000     3.19468    89.44309    45.00000     3.42164
    33.30000    90.00000    45.00000     3.19479    89.44310    45.00000     3.42174
    33.40000    90.00000    45.00000     3.19491    89.44311    45.00000     3.42185
    33.50000    90.00000    45.00000     3.19503    89.44312    45.00000     3.42195
    33.60000    90.00000    45.00000     3.19515    89.44313    45.00000     3.42206
    33.70000    90.00000    45.00000     3.19527    89.44314    45.00000     3.42216
    33.80000    90.00000    45.00000     3.19539    89.44315    45.00000     3.42227
    33.90000    90.00000    45.00000     3.19551    89.44315    45.00000     3.42237
    34.00000    90.00000    45.00000     3.19562    89.44316    45.00000     3.42248
    34.10000    90.00000    45.00000     3.19574    89.44317    45.00000     3.42258
    34.20000    90.00000    45.00000     3.19586    89.44318    45.00000     3.42269
    34.30000    90.00000    45.00000     3.19598    89.44319    45.00000     3.42280
    34.40000    90.00000    45.00000     3.19610    89.44320    45.00000     3.42290
    34.50000    90.00000    45.00000     3.19622    89.44321    45.00000     3.42301
    34.60000    90.00000    45.00000     3.19633    89.44322    45.00000     3.42311
    34.70000    90.00000    45.00000     3.19645    89.44322    45.00000     3.42322
    34.80000    90.00000    45.00000     3.19657    89.44323    45.00000     3.42332
    34.90000    90.00000    45.00000     3.19669    89.44324    45.00000     3.42343
    35.00000    90.00000    45.00000     3.19681    89.44325    45.00000     3.42353
    35.10000    90.00000    45.00000     3.19692    89.44326    45.00000     3.42364
    35.20000    90.00000    45.00000     3.19704    89.44327    45.00000     3.42374
    35.30000    90.00000    45.00000     3.19716    89.44328    45.00000     3.42385
    35.40000    90.00000    45.00000     3.19728    89.44329    45.00000     3.42395
    35.50000    90.00000    45.00000     3.19740    89.44329    45.00000     3.42406
    35.60000    90.00000    45.00000     3.19752    89.44330    45.00000     3.42416
    35.70000    90.00000    45.00000     3.19763    89.44331    45.00000     3.42427
    35.80000    90.00000    45.00000     3.19775    89.44332    45.00000     3.42437
    35.90000    90.00000    45.00000     3.19787    89.44333    45.00000     3.42448
    36.00000    90.00000    45.00000     3.19799    89.44334    45.00000     3.42458
    36.10000    90.00000    45.00000     3.19810    89.44335    45.00000     3.42469
    36.20000    90.00000    45.00000     3.19822    89.44336    45.00000     3.42479
    36.30000    90.00000    45.00000     3.19834    89.44336    45.00000     3.42489
    36.40000    90.00000    45.00000     3.19846    89.44337    45.00000     3.42500
    36.50000    90.00000    45.00000     3.19858    89.44338    45.00000     3.42510
    36.60000    90.00000    45.00000     3.19869    89.44339    45.00000     3.42521
    36.70000    90.00000    45.00000     3.19881    89.44340    45.00000     3.42531
    36.80000    90.00000    45.00000     3.19893    89.44341    45.00000     3.42542
    36.90000    90.00000    45.00000     3.19905    89.44342    45.00000     3.42552
    37.00000    90.00000    45.00000     3.19917    89.44343    45.00000     3.42563
    37.10000    90.00000    45.00000     3.19928    89.44343    45.00000     3.42573
    37.20000    90.00000    45.00000     3.19940    89.44344    45.00000     3.42584
    37.30000    90.00000    45.00000     3.19952    89.44345    45.00000     3.42594
    37.40000    90.00000    45.00000     3.19964    89.44346    45.00000     3.42604
    37.50000    90.00000    45.00000     3.19975    89.44347    45.00000     3.42615
    37.60000    90.00000    45.00000     3.19987    89.44348    45.00000     3.42625
    37.70000    90.00000    45.00000     3.19999    89.44349    45.00000     3.42636
    37.80000    90.00000    45.00000     3.20011    89.44350    45.00000     3.42646
    37.90000    90.00000    45.00000     3.20022    89.44350    45.00000     3.42657
    38.00000    90.00000    45.00000     3.20034    89.44351    45.00000     3.42667
    38.10000    90.00000    45.00000     3.20046    89.44352    45.00000     3.42677
    38.20000    90.00000    45.00000     3.20057    89.44353    45.00000     3.42688
    38.30000    90.00000    45.00000     3.20069    89.44354    45.00000     3.42698
    38.40000    90.00000    45.00000     3.20081    89.44355    45.00000     3.42709
    38.50000    90.00000    45.00000     3.20093    89.44356    45.00000     3.42719
    38.60000    90.00000    45.00000     3.20104    89.44357    45.00000     3.42729
    38.70000    90.00000    45.00000     3.20116    89.44358    45.00000     3.42740
    38.80000    90.00000    45.00000     3.20128    89.44358    45.00000     3.42750
    38.90000    90.00000    45.00000     3.20139    89.44359    45.00000     3.42761
    39.00000    90.00000    45.00000     3.20151    89.44360    45.00000     3.42771
    39.10000    90.00000    45.00000     3.20163    89.44361    45.00000     3.42781
    39.20000    90.00000    45.00000     3.20174    89.44362    45.00000     3.42792
    39.30000    90.00000    45.00000     3.20186    89.44363    45.00000     3.42802
    39.40000    90.00000    45.00000     3.20198    89.44364    45.00000     3.42812
    39.50000    90.00000    45.00000     3.20209    89.44365    45.00000     3.42823
    39.60000    90.00000    45.00000     3.20221    89.44365    45.00000     3.42833
    39.70000    90.00000    45.00000     3.20233    89.44366    45.00000     3.42844
    39.80000    90.00000    45.00000     3.20244    89.44367    45.00000     3.42854
    39.90000    90.00000    45.00000     3.20256    89.44368    45.00000     3.42864
    40.00000    90.00000    45.00000     3.20268    89.44369    45.00000     3.42875
