 # applied field (T), theta (degree), phi (degree), abs for RE 1-2
     0.00000    90.00000    45.42742     3.26461    90.00000    45.42742     3.26461
     0.10000    89.74036    45.42742     3.26458    89.74036    45.42742     3.26458
     0.20000    89.48071    45.42742     3.26450    89.48071    45.42742     3.26450
     0.30000    89.22102    45.42742     3.26436    89.22102    45.42742     3.26436
     0.40000    88.96130    44.57258     3.26417    88.96130    44.57258     3.26417
     0.50000    88.66474    45.42743     3.26388    88.66474    45.42743     3.26388
     0.60000    88.40488    45.42743     3.26357    88.40488    45.42743     3.26357
     0.70000    88.14493    45.42743     3.26321    88.14493    45.42743     3.26321
     0.80000    87.88489    45.42743     3.26279    87.88489    45.42743     3.26279
     0.90000    87.62473    45.42743     3.26231    87.62473    45.42743     3.26231
     1.00000    87.36445    44.57257     3.26178    87.36445    44.57257     3.26178
     1.10000    87.10403    44.57257     3.26120    87.10403    44.57257     3.26120
     1.20000    86.84345    45.42743     3.26056    86.84345    45.42743     3.26056
     1.30000    86.58270    45.42743     3.25986    86.58270    45.42743     3.25986
     1.40000    86.28481    44.57256     3.25900    86.28481    44.57256     3.25900
     1.50000    86.02365    45.42744     3.25819    86.02365    45.42744     3.25819
     1.60000    85.76228    44.57256     3.25732    85.76228    44.57256     3.25732
     1.70000    85.50069    45.00000     3.25640    85.50069    45.00000     3.25640
     1.80000    85.23885    45.00000     3.25542    85.23885    45.00000     3.25542
     1.90000    84.97675    45.00000     3.25438    84.97675    45.00000     3.25438
     2.00000    84.71439    45.00000     3.25330    84.71439    45.00000     3.25330
     2.10000    84.45174    45.00000     3.25215    84.45174    45.00000     3.25215
     2.20000    84.15154    45.00000     3.25078    84.15154    45.00000     3.25078
     2.30000    83.88823    45.00000     3.24951    83.88823    45.00000     3.24951
     2.40000    83.62460    45.00000     3.24820    83.62460    45.00000     3.24820
     2.50000    83.36062    45.00000     3.24682    83.36062    45.00000     3.24682
     2.60000    83.09628    45.43576     3.24540    83.09628    45.43576     3.24540
     2.70000    82.83156    45.43577     3.24391    82.83156    45.43577     3.24391
     2.80000    82.56646    44.56423     3.24238    82.56646    44.56423     3.24238
     2.90000    82.30096    44.56423     3.24078    82.30096    44.56423     3.24078
     3.00000    82.03504    44.56423     3.23914    82.03504    44.56423     3.23914
     3.10000    81.73093    44.56422     3.23718    81.73093    44.56422     3.23718
     3.20000    81.46406    44.56422     3.23542    81.46406    44.56422     3.23542
     3.30000    81.19673    45.00000     3.23360    81.19673    45.00000     3.23360
     3.40000    80.92892    45.00000     3.23172    80.92892    45.00000     3.23172
     3.50000    80.66061    45.00000     3.22979    80.66061    45.00000     3.22979
     3.60000    80.39179    45.00000     3.22780    80.39179    45.00000     3.22780
     3.70000    80.12245    45.00000     3.22576    80.12245    45.00000     3.22576
     3.80000    79.85256    45.44444     3.22366    79.85256    45.44444     3.22366
     3.90000    79.54377    44.55556     3.22119    79.54377    44.55556     3.22119
     4.00000    79.27267    44.55556     3.21898    79.27267    44.55556     3.21898
     4.10000    79.00097    45.44445     3.21670    79.00097    45.44445     3.21670
     4.20000    78.72867    44.55555     3.21438    78.72867    44.55555     3.21438
     4.30000    78.45575    45.00000     3.21200    78.45575    45.00000     3.21200
     4.40000    78.18219    45.00000     3.20956    78.18219    45.00000     3.20956
     4.50000    77.90797    45.00000     3.20707    77.90797    45.00000     3.20707
     4.60000    77.59409    45.00000     3.20415    77.59409    45.00000     3.20415
     4.70000    77.31841    44.54654     3.20154    77.31841    44.54654     3.20154
     4.80000    77.04202    45.45346     3.19887    77.04202    45.45346     3.19887
     4.90000    76.76491    44.54653     3.19615    76.76491    44.54653     3.19615
     5.00000    76.48706    44.54653     3.19338    76.48706    44.54653     3.19338
     5.10000    76.20845    45.00000     3.19055    76.20845    45.00000     3.19055
     5.20000    75.92906    45.00000     3.18766    75.92906    45.00000     3.18766
     5.30000    75.60913    45.00000     3.18429    75.60913    45.00000     3.18429
     5.40000    75.32803    45.00000     3.18129    75.32803    45.00000     3.18129
     5.50000    75.04609    44.53715     3.17823    75.04609    44.53715     3.17823
     5.60000    74.76330    44.53714     3.17512    74.76330    44.53714     3.17512
     5.70000    74.47966    44.53713     3.17195    74.47966    44.53713     3.17195
     5.80000    74.19513    45.00000     3.16873    74.19513    45.00000     3.16873
     5.90000    73.86918    45.00000     3.16497    73.86918    45.00000     3.16497
     6.00000    73.58270    45.00000     3.16163    73.58270    45.00000     3.16163
     6.10000    73.29527    44.52736     3.15824    73.29527    44.52736     3.15824
     6.20000    73.00688    45.47264     3.15479    73.00688    45.47264     3.15479
     6.30000    72.71752    44.52735     3.15129    72.71752    44.52735     3.15129
     6.40000    72.38594    45.00000     3.14721    72.38594    45.00000     3.14721
     6.50000    72.09442    45.00000     3.14359    72.09442    45.00000     3.14359
     6.60000    71.80186    45.00000     3.13992    71.80186    45.00000     3.13992
     6.70000    71.50824    44.51715     3.13619    71.50824    44.51715     3.13619
     6.80000    71.21355    44.51715     3.13241    71.21355    44.51715     3.13241
     6.90000    70.87576    45.48286     3.12802    70.87576    45.48286     3.12802
     7.00000    70.57870    45.00000     3.12413    70.57870    45.00000     3.12413
     7.10000    70.28050    45.00000     3.12018    70.28050    45.00000     3.12018
     7.20000    69.98114    45.00000     3.11618    69.98114    45.00000     3.11618
     7.30000    69.63790    44.50649     3.11153    69.63790    44.50649     3.11153
     7.40000    69.33599    45.49351     3.10742    69.33599    45.49351     3.10742
     7.50000    69.03285    44.50648     3.10325    69.03285    44.50648     3.10325
     7.60000    68.72848    45.00000     3.09903    68.72848    45.00000     3.09903
     7.70000    68.37941    45.00000     3.09414    68.37941    45.00000     3.09414
     7.80000    68.07228    45.50464     3.08980    68.07228    45.50464     3.08980
     7.90000    67.76386    45.50465     3.08542    67.76386    45.50465     3.08542
     8.00000    67.41008    45.00000     3.08034    67.41008    45.00000     3.08034
     8.10000    67.09878    45.00000     3.07585    67.09878    45.00000     3.07585
     8.20000    66.78609    45.00000     3.07131    66.78609    45.00000     3.07131
     8.30000    66.42735    45.51629     3.06604    66.42735    45.51629     3.06604
     8.40000    66.11163    44.48370     3.06139    66.11163    44.48370     3.06139
     8.50000    65.79447    45.00000     3.05669    65.79447    45.00000     3.05669
     8.60000    65.43053    45.00000     3.05125    65.43053    45.00000     3.05125
     8.70000    65.11018    44.47153     3.04644    65.11018    44.47153     3.04644
     8.80000    64.74254    44.47152     3.04088    64.74254    44.47152     3.04088
     8.90000    64.41890    44.47151     3.03596    64.41890    44.47151     3.03596
     9.00000    64.09370    45.00000     3.03100    64.09370    45.00000     3.03100
     9.10000    63.72042    45.00000     3.02527    63.72042    45.00000     3.02527
     9.20000    63.39176    44.45874     3.02020    63.39176    44.45874     3.02020
     9.30000    63.01448    45.54127     3.01435    63.01448    45.54127     3.01435
     9.40000    62.68227    45.00000     3.00919    62.68227    45.00000     3.00919
     9.50000    62.30086    45.00000     3.00322    62.30086    45.00000     3.00322
     9.60000    61.96498    45.55467     2.99796    61.96498    45.55467     2.99796
     9.70000    61.57931    44.44532     2.99188    61.57931    44.44532     2.99188
     9.80000    61.23966    45.00000     2.98653    61.23966    45.00000     2.98653
     9.90000    60.84960    45.00000     2.98034    60.84960    45.00000     2.98034
    10.00000    60.45714    45.56876     2.97410    60.45714    45.56876     2.97410
    10.10000    60.11146    44.43123     2.96861    60.11146    44.43123     2.96861
    10.20000    59.71443    45.00000     2.96226    59.71443    45.00000     2.96226
    10.30000    59.36467    45.00000     2.95667    59.36467    45.00000     2.95667
    10.40000    58.96290    45.58357     2.95023    58.96290    45.58357     2.95023
    10.50000    58.55857    45.00000     2.94374    58.55857    45.00000     2.94374
    10.60000    58.15162    45.00000     2.93719    58.15162    45.00000     2.93719
    10.70000    57.74200    45.59918     2.93059    57.74200    45.59918     2.93059
    10.80000    57.38110    45.59919     2.92479    57.38110    45.59919     2.92479
    10.90000    56.96642    45.00000     2.91810    56.96642    45.00000     2.91810
    11.00000    56.54897    45.00000     2.91137    56.54897    45.00000     2.91137
    11.10000    56.12870    45.61564     2.90459    56.12870    45.61564     2.90459
    11.20000    55.70561    45.00000     2.89777    55.70561    45.00000     2.89777
    11.30000    55.27963    45.00000     2.89090    55.27963    45.00000     2.89090
    11.40000    54.85071    44.36697     2.88399    54.85071    44.36697     2.88399
    11.50000    54.41884    45.00000     2.87705    54.41884    45.00000     2.87705
    11.60000    53.98397    45.00000     2.87006    53.98397    45.00000     2.87006
    11.70000    53.54604    44.34858     2.86304    53.54604    44.34858     2.86304
    11.80000    53.10504    45.65143     2.85598    53.10504    45.65143     2.85598
    11.90000    52.66093    45.00000     2.84888    52.66093    45.00000     2.84888
    12.00000    52.15778    45.67091     2.84086    52.15778    45.67091     2.84086
    12.10000    51.70690    45.67092     2.83370    51.70690    45.67092     2.83370
    12.20000    51.25277    45.00000     2.82651    51.25277    45.00000     2.82651
    12.30000    50.73822    45.69159     2.81838    50.73822    45.69159     2.81838
    12.40000    50.27707    45.00000     2.81114    50.27707    45.00000     2.81114
    12.50000    49.75453    45.00000     2.80295    49.75453    45.00000     2.80295
    12.60000    49.28616    45.71360     2.79566    49.28616    45.71360     2.79566
    12.70000    48.75543    45.00000     2.78743    48.75543    45.00000     2.78743
    12.80000    48.22028    45.00000     2.77917    48.22028    45.00000     2.77917
    12.90000    47.74058    45.73704     2.77183    47.74058    45.73704     2.77183
    13.00000    47.19696    45.00000     2.76354    47.19696    45.00000     2.76354
    13.10000    46.64876    44.23794     2.75524    46.64876    44.23794     2.75524
    13.20000    46.09595    45.76208     2.74693    46.09595    45.76208     2.74693
    13.30000    45.53849    45.00000     2.73862    45.53849    45.00000     2.73862
    13.40000    44.97630    44.21115     2.73030    44.97630    44.21115     2.73030
    13.50000    44.40939    45.00000     2.72199    44.40939    45.00000     2.72199
    13.60000    43.77407    45.81758     2.71275    43.77407    45.81758     2.71275
    13.70000    43.19697    45.00000     2.70445    43.19697    45.00000     2.70445
    13.80000    42.55025    45.00000     2.69523    42.55025    45.00000     2.69523
    13.90000    41.96278    45.84848     2.68696    41.96278    45.84848     2.68696
    14.00000    41.30446    45.00000     2.67778    41.30446    45.00000     2.67778
    14.10000    40.63994    44.11820     2.66864    40.63994    44.11820     2.66864
    14.20000    39.96922    45.00000     2.65953    39.96922    45.00000     2.65953
    14.30000    39.29223    44.08217     2.65046    39.29223    44.08217     2.65046
    14.40000    38.60895    45.00000     2.64144    38.60895    45.00000     2.64144
    14.50000    37.85021    44.04307     2.63157    37.85021    44.04307     2.63157
    14.60000    37.08378    45.00000     2.62178    37.08378    45.00000     2.62178
    14.70000    36.38014    45.99951     2.61295    36.38014    45.99951     2.61295
    14.80000    35.52771    45.00000     2.60243    35.52771    45.00000     2.60243
    14.90000    34.73803    46.04605     2.59290    34.73803    46.04605     2.59290
    15.00000    33.94059    45.00000     2.58348    33.94059    45.00000     2.58348
    15.10000    33.06194    43.90288     2.57332    33.06194    43.90288     2.57332
    15.20000    32.17407    45.00000     2.56331    32.17407    45.00000     2.56331
    15.30000    31.20196    45.00000     2.55263    31.20196    45.00000     2.55263
    15.40000    30.29494    46.21581     2.54296    30.29494    46.21581     2.54296
    15.50000    29.30222    45.00000     2.53268    29.30222    45.00000     2.53268
    15.60000    28.22141    45.00000     2.52185    28.22141    45.00000     2.52185
    15.70000    27.12845    46.36328     2.51131    27.12845    46.36328     2.51131
    15.80000    25.94426    45.00000     2.50034    25.94426    45.00000     2.50034
    15.90000    24.74658    45.00000     2.48974    24.74658    45.00000     2.48974
    16.00000    23.45461    45.00000     2.47886    23.45461    45.00000     2.47886
    16.10000    22.06600    43.33362     2.46780    22.06600    43.33362     2.46780
    16.20000    20.57846    43.20027     2.45670    20.57846    43.20027     2.45670
    16.30000    18.98985    46.95628     2.44569    18.98985    46.95628     2.44569
    16.40000    17.21324    47.14264     2.43443    17.21324    47.14264     2.43443
    16.50000    15.15801    45.00000     2.42277    15.15801    45.00000     2.42277
    16.60000    12.81722    45.00000     2.41130    12.81722    45.00000     2.41130
    16.70000     9.92078    45.00000     2.39977     9.92078    45.00000     2.39977
    16.80000     5.47535    38.57149     2.38779     5.47535    38.57149     2.38779
    16.90000     0.00000     0.00000     2.38261     0.00000     0.00000     2.38261
    17.00000     0.00000     0.00000     2.38274     0.00000     0.00000     2.38274
    17.10000     0.00000     0.00000     2.38286     0.00000     0.00000     2.38286
    17.20000     0.00000     0.00000     2.38298     0.00000     0.00000     2.38298
    17.30000     0.00000     0.00000     2.38311     0.00000     0.00000     2.38311
    17.40000     0.00000     0.00000     2.38323     0.00000     0.00000     2.38323
    17.50000     0.00000     0.00000     2.38336     0.00000     0.00000     2.38336
    17.60000     0.00000     0.00000     2.38348     0.00000     0.00000     2.38348
    17.70000     0.00000     0.00000     2.38360     0.00000     0.00000     2.38360
    17.80000     0.00000     0.00000     2.38373     0.00000     0.00000     2.38373
    17.90000     0.00000     0.00000     2.38385     0.00000     0.00000     2.38385
    18.00000     0.00000     0.00000     2.38398     0.00000     0.00000     2.38398
    18.10000     0.00000     0.00000     2.38410     0.00000     0.00000     2.38410
    18.20000     0.00000     0.00000     2.38422     0.00000     0.00000     2.38422
    18.30000     0.00000     0.00000     2.38435     0.00000     0.00000     2.38435
    18.40000     0.00000     0.00000     2.38447     0.00000     0.00000     2.38447
    18.50000     0.00000     0.00000     2.38460     0.00000     0.00000     2.38460
    18.60000     0.00000     0.00000     2.38472     0.00000     0.00000     2.38472
    18.70000     0.00000     0.00000     2.38484     0.00000     0.00000     2.38484
    18.80000     0.00000     0.00000     2.38497     0.00000     0.00000     2.38497
    18.90000     0.00000     0.00000     2.38509     0.00000     0.00000     2.38509
    19.00000     0.00000     0.00000     2.38521     0.00000     0.00000     2.38521
    19.10000     0.00000     0.00000     2.38534     0.00000     0.00000     2.38534
    19.20000     0.00000     0.00000     2.38546     0.00000     0.00000     2.38546
    19.30000     0.00000     0.00000     2.38558     0.00000     0.00000     2.38558
    19.40000     0.00000     0.00000     2.38571     0.00000     0.00000     2.38571
    19.50000     0.00000     0.00000     2.38583     0.00000     0.00000     2.38583
    19.60000     0.00000     0.00000     2.38595     0.00000     0.00000     2.38595
    19.70000     0.00000     0.00000     2.38608     0.00000     0.00000     2.38608
    19.80000     0.00000     0.00000     2.38620     0.00000     0.00000     2.38620
    19.90000     0.00000     0.00000     2.38632     0.00000     0.00000     2.38632
    20.00000     0.00000     0.00000     2.38645     0.00000     0.00000     2.38645
    20.10000     0.00000     0.00000     2.38657     0.00000     0.00000     2.38657
    20.20000     0.00000     0.00000     2.38669     0.00000     0.00000     2.38669
    20.30000     0.00000     0.00000     2.38682     0.00000     0.00000     2.38682
    20.40000     0.00000     0.00000     2.38694     0.00000     0.00000     2.38694
    20.50000     0.00000     0.00000     2.38706     0.00000     0.00000     2.38706
    20.60000     0.00000     0.00000     2.38719     0.00000     0.00000     2.38719
    20.70000     0.00000     0.00000     2.38731     0.00000     0.00000     2.38731
    20.80000     0.00000     0.00000     2.38743     0.00000     0.00000     2.38743
    20.90000     0.00000     0.00000     2.38756     0.00000     0.00000     2.38756
    21.00000     0.00000     0.00000     2.38768     0.00000     0.00000     2.38768
    21.10000     0.00000     0.00000     2.38780     0.00000     0.00000     2.38780
    21.20000     0.00000     0.00000     2.38793     0.00000     0.00000     2.38793
    21.30000     0.00000     0.00000     2.38805     0.00000     0.00000     2.38805
    21.40000     0.00000     0.00000     2.38817     0.00000     0.00000     2.38817
    21.50000     0.00000     0.00000     2.38829     0.00000     0.00000     2.38829
    21.60000     0.00000     0.00000     2.38842     0.00000     0.00000     2.38842
    21.70000     0.00000     0.00000     2.38854     0.00000     0.00000     2.38854
    21.80000     0.00000     0.00000     2.38866     0.00000     0.00000     2.38866
    21.90000     0.00000     0.00000     2.38879     0.00000     0.00000     2.38879
    22.00000     0.00000     0.00000     2.38891     0.00000     0.00000     2.38891
    22.10000     0.00000     0.00000     2.38903     0.00000     0.00000     2.38903
    22.20000     0.00000     0.00000     2.38915     0.00000     0.00000     2.38915
    22.30000     0.00000     0.00000     2.38928     0.00000     0.00000     2.38928
    22.40000     0.00000     0.00000     2.38940     0.00000     0.00000     2.38940
    22.50000     0.00000     0.00000     2.38952     0.00000     0.00000     2.38952
    22.60000     0.00000     0.00000     2.38964     0.00000     0.00000     2.38964
    22.70000     0.00000     0.00000     2.38977     0.00000     0.00000     2.38977
    22.80000     0.00000     0.00000     2.38989     0.00000     0.00000     2.38989
    22.90000     0.00000     0.00000     2.39001     0.00000     0.00000     2.39001
    23.00000     0.00000     0.00000     2.39013     0.00000     0.00000     2.39013
    23.10000     0.00000     0.00000     2.39026     0.00000     0.00000     2.39026
    23.20000     0.00000     0.00000     2.39038     0.00000     0.00000     2.39038
    23.30000     0.00000     0.00000     2.39050     0.00000     0.00000     2.39050
    23.40000     0.00000     0.00000     2.39062     0.00000     0.00000     2.39062
    23.50000     0.00000     0.00000     2.39075     0.00000     0.00000     2.39075
    23.60000     0.00000     0.00000     2.39087     0.00000     0.00000     2.39087
    23.70000     0.00000     0.00000     2.39099     0.00000     0.00000     2.39099
    23.80000     0.00000     0.00000     2.39111     0.00000     0.00000     2.39111
    23.90000     0.00000     0.00000     2.39123     0.00000     0.00000     2.39123
    24.00000     0.00000     0.00000     2.39136     0.00000     0.00000     2.39136
    24.10000     0.00000     0.00000     2.39148     0.00000     0.00000     2.39148
    24.20000     0.00000     0.00000     2.39160     0.00000     0.00000     2.39160
    24.30000     0.00000     0.00000     2.39172     0.00000     0.00000     2.39172
    24.40000     0.00000     0.00000     2.39184     0.00000     0.00000     2.39184
    24.50000     0.00000     0.00000     2.39197     0.00000     0.00000     2.39197
    24.60000     0.00000     0.00000     2.39209     0.00000     0.00000     2.39209
    24.70000     0.00000     0.00000     2.39221     0.00000     0.00000     2.39221
    24.80000     0.00000     0.00000     2.39233     0.00000     0.00000     2.39233
    24.90000     0.00000     0.00000     2.39245     0.00000     0.00000     2.39245
    25.00000     0.00000     0.00000     2.39258     0.00000     0.00000     2.39258
    25.10000     0.00000     0.00000     2.39270     0.00000     0.00000     2.39270
    25.20000     0.00000     0.00000     2.39282     0.00000     0.00000     2.39282
    25.30000     0.00000     0.00000     2.39294     0.00000     0.00000     2.39294
    25.40000     0.00000     0.00000     2.39306     0.00000     0.00000     2.39306
    25.50000     0.00000     0.00000     2.39319     0.00000     0.00000     2.39319
    25.60000     0.00000     0.00000     2.39331     0.00000     0.00000     2.39331
    25.70000     0.00000     0.00000     2.39343     0.00000     0.00000     2.39343
    25.80000     0.00000     0.00000     2.39355     0.00000     0.00000     2.39355
    25.90000     0.00000     0.00000     2.39367     0.00000     0.00000     2.39367
    26.00000     0.00000     0.00000     2.39379     0.00000     0.00000     2.39379
    26.10000     0.00000     0.00000     2.39391     0.00000     0.00000     2.39391
    26.20000     0.00000     0.00000     2.39404     0.00000     0.00000     2.39404
    26.30000     0.00000     0.00000     2.39416     0.00000     0.00000     2.39416
    26.40000     0.00000     0.00000     2.39428     0.00000     0.00000     2.39428
    26.50000     0.00000     0.00000     2.39440     0.00000     0.00000     2.39440
    26.60000     0.00000     0.00000     2.39452     0.00000     0.00000     2.39452
    26.70000     0.00000     0.00000     2.39464     0.00000     0.00000     2.39464
    26.80000     0.00000     0.00000     2.39476     0.00000     0.00000     2.39476
    26.90000     0.00000     0.00000     2.39489     0.00000     0.00000     2.39489
    27.00000     0.00000     0.00000     2.39501     0.00000     0.00000     2.39501
    27.10000     0.00000     0.00000     2.39513     0.00000     0.00000     2.39513
    27.20000     0.00000     0.00000     2.39525     0.00000     0.00000     2.39525
    27.30000     0.00000     0.00000     2.39537     0.00000     0.00000     2.39537
    27.40000     0.00000     0.00000     2.39549     0.00000     0.00000     2.39549
    27.50000     0.00000     0.00000     2.39561     0.00000     0.00000     2.39561
    27.60000     0.00000     0.00000     2.39573     0.00000     0.00000     2.39573
    27.70000     0.00000     0.00000     2.39586     0.00000     0.00000     2.39586
    27.80000     0.00000     0.00000     2.39598     0.00000     0.00000     2.39598
    27.90000     0.00000     0.00000     2.39610     0.00000     0.00000     2.39610
    28.00000     0.00000     0.00000     2.39622     0.00000     0.00000     2.39622
    28.10000     0.00000     0.00000     2.39634     0.00000     0.00000     2.39634
    28.20000     0.00000     0.00000     2.39646     0.00000     0.00000     2.39646
    28.30000     0.00000     0.00000     2.39658     0.00000     0.00000     2.39658
    28.40000     0.00000     0.00000     2.39670     0.00000     0.00000     2.39670
    28.50000     0.00000     0.00000     2.39682     0.00000     0.00000     2.39682
    28.60000     0.00000     0.00000     2.39694     0.00000     0.00000     2.39694
    28.70000     0.00000     0.00000     2.39706     0.00000     0.00000     2.39706
    28.80000     0.00000     0.00000     2.39719     0.00000     0.00000     2.39719
    28.90000     0.00000     0.00000     2.39731     0.00000     0.00000     2.39731
    29.00000     0.00000     0.00000     2.39743     0.00000     0.00000     2.39743
    29.10000     0.00000     0.00000     2.39755     0.00000     0.00000     2.39755
    29.20000     0.00000     0.00000     2.39767     0.00000     0.00000     2.39767
    29.30000     0.00000     0.00000     2.39779     0.00000     0.00000     2.39779
    29.40000     0.00000     0.00000     2.39791     0.00000     0.00000     2.39791
    29.50000     0.00000     0.00000     2.39803     0.00000     0.00000     2.39803
    29.60000     0.00000     0.00000     2.39815     0.00000     0.00000     2.39815
    29.70000     0.00000     0.00000     2.39827     0.00000     0.00000     2.39827
    29.80000     0.00000     0.00000     2.39839     0.00000     0.00000     2.39839
    29.90000     0.00000     0.00000     2.39851     0.00000     0.00000     2.39851
    30.00000     0.00000     0.00000     2.39863     0.00000     0.00000     2.39863
    30.10000     0.00000     0.00000     2.39875     0.00000     0.00000     2.39875
    30.20000     0.00000     0.00000     2.39887     0.00000     0.00000     2.39887
    30.30000     0.00000     0.00000     2.39899     0.00000     0.00000     2.39899
    30.40000     0.00000     0.00000     2.39911     0.00000     0.00000     2.39911
    30.50000     0.00000     0.00000     2.39923     0.00000     0.00000     2.39923
    30.60000     0.00000     0.00000     2.39935     0.00000     0.00000     2.39935
    30.70000     0.00000     0.00000     2.39947     0.00000     0.00000     2.39947
    30.80000     0.00000     0.00000     2.39959     0.00000     0.00000     2.39959
    30.90000     0.00000     0.00000     2.39971     0.00000     0.00000     2.39971
    31.00000     0.00000     0.00000     2.39983     0.00000     0.00000     2.39983
    31.10000     0.00000     0.00000     2.39995     0.00000     0.00000     2.39995
    31.20000     0.00000     0.00000     2.40007     0.00000     0.00000     2.40007
    31.30000     0.00000     0.00000     2.40019     0.00000     0.00000     2.40019
    31.40000     0.00000     0.00000     2.40031     0.00000     0.00000     2.40031
    31.50000     0.00000     0.00000     2.40043     0.00000     0.00000     2.40043
    31.60000     0.00000     0.00000     2.40055     0.00000     0.00000     2.40055
    31.70000     0.00000     0.00000     2.40067     0.00000     0.00000     2.40067
    31.80000     0.00000     0.00000     2.40079     0.00000     0.00000     2.40079
    31.90000     0.00000     0.00000     2.40091     0.00000     0.00000     2.40091
    32.00000     0.00000     0.00000     2.40103     0.00000     0.00000     2.40103
    32.10000     0.00000     0.00000     2.40115     0.00000     0.00000     2.40115
    32.20000     0.00000     0.00000     2.40127     0.00000     0.00000     2.40127
    32.30000     0.00000     0.00000     2.40139     0.00000     0.00000     2.40139
    32.40000     0.00000     0.00000     2.40151     0.00000     0.00000     2.40151
    32.50000     0.00000     0.00000     2.40163     0.00000     0.00000     2.40163
    32.60000     0.00000     0.00000     2.40175     0.00000     0.00000     2.40175
    32.70000     0.00000     0.00000     2.40187     0.00000     0.00000     2.40187
    32.80000     0.00000     0.00000     2.40199     0.00000     0.00000     2.40199
    32.90000     0.00000     0.00000     2.40211     0.00000     0.00000     2.40211
    33.00000     0.00000     0.00000     2.40223     0.00000     0.00000     2.40223
    33.10000     0.00000     0.00000     2.40235     0.00000     0.00000     2.40235
    33.20000     0.00000     0.00000     2.40247     0.00000     0.00000     2.40247
    33.30000     0.00000     0.00000     2.40259     0.00000     0.00000     2.40259
    33.40000     0.00000     0.00000     2.40271     0.00000     0.00000     2.40271
    33.50000     0.00000     0.00000     2.40283     0.00000     0.00000     2.40283
    33.60000     0.00000     0.00000     2.40295     0.00000     0.00000     2.40295
    33.70000     0.00000     0.00000     2.40307     0.00000     0.00000     2.40307
    33.80000     0.00000     0.00000     2.40319     0.00000     0.00000     2.40319
    33.90000     0.00000     0.00000     2.40331     0.00000     0.00000     2.40331
    34.00000     0.00000     0.00000     2.40343     0.00000     0.00000     2.40343
    34.10000     0.00000     0.00000     2.40354     0.00000     0.00000     2.40354
    34.20000     0.00000     0.00000     2.40366     0.00000     0.00000     2.40366
    34.30000     0.00000     0.00000     2.40378     0.00000     0.00000     2.40378
    34.40000     0.00000     0.00000     2.40390     0.00000     0.00000     2.40390
    34.50000     0.00000     0.00000     2.40402     0.00000     0.00000     2.40402
    34.60000     0.00000     0.00000     2.40414     0.00000     0.00000     2.40414
    34.70000     0.00000     0.00000     2.40426     0.00000     0.00000     2.40426
    34.80000     0.00000     0.00000     2.40438     0.00000     0.00000     2.40438
    34.90000     0.00000     0.00000     2.40450     0.00000     0.00000     2.40450
    35.00000     0.00000     0.00000     2.40462     0.00000     0.00000     2.40462
    35.10000     0.00000     0.00000     2.40473     0.00000     0.00000     2.40473
    35.20000     0.00000     0.00000     2.40485     0.00000     0.00000     2.40485
    35.30000     0.00000     0.00000     2.40497     0.00000     0.00000     2.40497
    35.40000     0.00000     0.00000     2.40509     0.00000     0.00000     2.40509
    35.50000     0.00000     0.00000     2.40521     0.00000     0.00000     2.40521
    35.60000     0.00000     0.00000     2.40533     0.00000     0.00000     2.40533
    35.70000     0.00000     0.00000     2.40545     0.00000     0.00000     2.40545
    35.80000     0.00000     0.00000     2.40557     0.00000     0.00000     2.40557
    35.90000     0.00000     0.00000     2.40569     0.00000     0.00000     2.40569
    36.00000     0.00000     0.00000     2.40580     0.00000     0.00000     2.40580
    36.10000     0.00000     0.00000     2.40592     0.00000     0.00000     2.40592
    36.20000     0.00000     0.00000     2.40604     0.00000     0.00000     2.40604
    36.30000     0.00000     0.00000     2.40616     0.00000     0.00000     2.40616
    36.40000     0.00000     0.00000     2.40628     0.00000     0.00000     2.40628
    36.50000     0.00000     0.00000     2.40640     0.00000     0.00000     2.40640
    36.60000     0.00000     0.00000     2.40652     0.00000     0.00000     2.40652
    36.70000     0.00000     0.00000     2.40663     0.00000     0.00000     2.40663
    36.80000     0.00000     0.00000     2.40675     0.00000     0.00000     2.40675
    36.90000     0.00000     0.00000     2.40687     0.00000     0.00000     2.40687
    37.00000     0.00000     0.00000     2.40699     0.00000     0.00000     2.40699
    37.10000     0.00000     0.00000     2.40711     0.00000     0.00000     2.40711
    37.20000     0.00000     0.00000     2.40723     0.00000     0.00000     2.40723
    37.30000     0.00000     0.00000     2.40734     0.00000     0.00000     2.40734
    37.40000     0.00000     0.00000     2.40746     0.00000     0.00000     2.40746
    37.50000     0.00000     0.00000     2.40758     0.00000     0.00000     2.40758
    37.60000     0.00000     0.00000     2.40770     0.00000     0.00000     2.40770
    37.70000     0.00000     0.00000     2.40782     0.00000     0.00000     2.40782
    37.80000     0.00000     0.00000     2.40794     0.00000     0.00000     2.40794
    37.90000     0.00000     0.00000     2.40805     0.00000     0.00000     2.40805
    38.00000     0.00000     0.00000     2.40817     0.00000     0.00000     2.40817
    38.10000     0.00000     0.00000     2.40829     0.00000     0.00000     2.40829
    38.20000     0.00000     0.00000     2.40841     0.00000     0.00000     2.40841
    38.30000     0.00000     0.00000     2.40853     0.00000     0.00000     2.40853
    38.40000     0.00000     0.00000     2.40864     0.00000     0.00000     2.40864
    38.50000     0.00000     0.00000     2.40876     0.00000     0.00000     2.40876
    38.60000     0.00000     0.00000     2.40888     0.00000     0.00000     2.40888
    38.70000     0.00000     0.00000     2.40900     0.00000     0.00000     2.40900
    38.80000     0.00000     0.00000     2.40912     0.00000     0.00000     2.40912
    38.90000     0.00000     0.00000     2.40923     0.00000     0.00000     2.40923
    39.00000     0.00000     0.00000     2.40935     0.00000     0.00000     2.40935
    39.10000     0.00000     0.00000     2.40947     0.00000     0.00000     2.40947
    39.20000     0.00000     0.00000     2.40959     0.00000     0.00000     2.40959
    39.30000     0.00000     0.00000     2.40970     0.00000     0.00000     2.40970
    39.40000     0.00000     0.00000     2.40982     0.00000     0.00000     2.40982
    39.50000     0.00000     0.00000     2.40994     0.00000     0.00000     2.40994
    39.60000     0.00000     0.00000     2.41006     0.00000     0.00000     2.41006
    39.70000     0.00000     0.00000     2.41018     0.00000     0.00000     2.41018
    39.80000     0.00000     0.00000     2.41029     0.00000     0.00000     2.41029
    39.90000     0.00000     0.00000     2.41041     0.00000     0.00000     2.41041
    40.00000     0.00000     0.00000     2.41053     0.00000     0.00000     2.41053
