 # applied field (T), theta (degree), phi (degree), abs
     0.00000     0.00000     0.00000    42.75042
     0.10000     0.22930     0.00000    42.75042
     0.20000     0.45860     0.00000    42.75042
     0.30000     0.63057     0.00000    42.75042
     0.40000     0.85987     0.00000    42.75042
     0.50000     1.08917     0.00000    42.75042
     0.60000     1.31847     0.00000    42.75042
     0.70000     1.49045     0.00000    42.75042
     0.80000     1.71975     0.00000    42.75042
     0.90000     1.94904     0.00000    42.75042
     1.00000     2.17834     0.00000    42.75042
     1.10000     2.35032     0.00000    42.75042
     1.20000     2.57962     0.00000    42.75042
     1.30000     2.80892     0.00000    42.75042
     1.40000     3.03822     0.00000    42.75042
     1.50000     3.26752     0.00000    42.75042
     1.60000     3.43949     0.00000    42.75042
     1.70000     3.66879     0.00000    42.75042
     1.80000     3.89809     0.00000    42.75042
     1.90000     4.12739     0.00000    42.75042
     2.00000     4.29936     0.00000    42.75042
     2.10000     4.52866     0.00000    42.75042
     2.20000     4.75796     0.00000    42.75042
     2.30000     4.98726     0.00000    42.75042
     2.40000     5.15924     0.00000    42.75042
     2.50000     5.38854     0.00000    42.75042
     2.60000     5.61783     0.00000    42.75042
     2.70000     5.84713     0.00000    42.75042
     2.80000     6.07643     0.00000    42.75042
     2.90000     6.24841     0.00000    42.75042
     3.00000     6.47771     0.00000    42.75042
     3.10000     6.70701     0.00000    42.75042
     3.20000     6.93631     0.00000    42.75042
     3.30000     7.10828     0.00000    42.75042
     3.40000     7.33758     0.00000    42.75042
     3.50000     7.56688     0.00000    42.75042
     3.60000     7.79618     0.00000    42.75042
     3.70000     7.96815     0.00000    42.75042
     3.80000     8.19745     0.00000    42.75042
     3.90000     8.42675     0.00000    42.75042
     4.00000     8.65605     0.00000    42.75042
     4.10000     8.88535     0.00000    42.75042
     4.20000     9.05732     0.00000    42.75042
     4.30000     9.28662     0.00000    42.75042
     4.40000     9.51592     0.00000    42.75042
     4.50000     9.74522     0.00000    42.75042
     4.60000     9.91720     0.00000    42.75042
     4.70000    10.14650     0.00000    42.75042
     4.80000    10.37580     0.00000    42.75042
     4.90000    10.60510     0.00000    42.75042
     5.00000    10.83439     0.00000    42.75042
     5.10000    11.00637     0.00000    42.75042
     5.20000    11.23567     0.00000    42.75042
     5.30000    11.46497     0.00000    42.75042
     5.40000    11.69427     0.00000    42.75042
     5.50000    11.92357     0.00000    42.75042
     5.60000    12.09554     0.00000    42.75042
     5.70000    12.32484     0.00000    42.75042
     5.80000    12.55414     0.00000    42.75042
     5.90000    12.78344     0.00000    42.75042
     6.00000    12.95541     0.00000    42.75042
     6.10000    13.18471     0.00000    42.75042
     6.20000    13.41401     0.00000    42.75042
     6.30000    13.64331     0.00000    42.75042
     6.40000    13.87261     0.00000    42.75042
     6.50000    14.04459     0.00000    42.75042
     6.60000    14.27389     0.00000    42.75042
     6.70000    14.50318     0.00000    42.75042
     6.80000    14.73248     0.00000    42.75042
     6.90000    14.96178     0.00000    42.75042
     7.00000    15.13376     0.00000    42.75042
     7.10000    15.36306     0.00000    42.75042
     7.20000    15.59236     0.00000    42.75042
     7.30000    15.82166     0.00000    42.75042
     7.40000    16.05096     0.00000    42.75042
     7.50000    16.22293     0.00000    42.75042
     7.60000    16.45223     0.00000    42.75042
     7.70000    16.68153     0.00000    42.75042
     7.80000    16.91083     0.00000    42.75042
     7.90000    17.14013     0.00000    42.75042
     8.00000    17.31210     0.00000    42.75042
     8.10000    17.54140     0.00000    42.75042
     8.20000    17.77070     0.00000    42.75042
     8.30000    18.00000     0.00000    42.75042
     8.40000    18.22930     0.00000    42.75042
     8.50000    18.45860     0.00000    42.75042
     8.60000    18.63057     0.00000    42.75042
     8.70000    18.85987     0.00000    42.75042
     8.80000    19.08917     0.00000    42.75042
     8.90000    19.31847     0.00000    42.75042
     9.00000    19.54777     0.00000    42.75042
     9.10000    19.71975     0.00000    42.75042
     9.20000    19.94904     0.00000    42.75042
     9.30000    20.17834     0.00000    42.75042
     9.40000    20.40764     0.00000    42.75042
     9.50000    20.63694     0.00000    42.75042
     9.60000    20.86624     0.00000    42.75042
     9.70000    21.03822     0.00000    42.75042
     9.80000    21.26752     0.00000    42.75042
     9.90000    21.49682     0.00000    42.75042
    10.00000    21.72611     0.00000    42.75042
    10.10000    21.95541     0.00000    42.75042
    10.20000    22.18471     0.00000    42.75042
    10.30000    22.41401     0.00000    42.75042
    10.40000    22.58599     0.00000    42.75042
    10.50000    22.81529     0.00000    42.75042
    10.60000    23.04459     0.00000    42.75042
    10.70000    23.27389     0.00000    42.75042
    10.80000    23.50318     0.00000    42.75042
    10.90000    23.73248     0.00000    42.75042
    11.00000    23.96178     0.00000    42.75042
    11.10000    24.13376     0.00000    42.75042
    11.20000    24.36306     0.00000    42.75042
    11.30000    24.59236     0.00000    42.75042
    11.40000    24.82166     0.00000    42.75042
    11.50000    25.05096     0.00000    42.75042
    11.60000    25.28025     0.00000    42.75042
    11.70000    25.50955     0.00000    42.75042
    11.80000    25.73885     0.00000    42.75042
    11.90000    25.91083     0.00000    42.75042
    12.00000    26.14013     0.00000    42.75042
    12.10000    26.36943     0.00000    42.75042
    12.20000    26.59873     0.00000    42.75042
    12.30000    26.82803     0.00000    42.75042
    12.40000    27.05732     0.00000    42.75042
    12.50000    27.28662     0.00000    42.75042
    12.60000    27.51592     0.00000    42.75042
    12.70000    27.74522     0.00000    42.75042
    12.80000    27.97452     0.00000    42.75042
    12.90000    28.14650     0.00000    42.75042
    13.00000    28.37580     0.00000    42.75042
    13.10000    28.60510     0.00000    42.75042
    13.20000    28.83439     0.00000    42.75042
    13.30000    29.06369     0.00000    42.75042
    13.40000    29.29299     0.00000    42.75042
    13.50000    29.52229     0.00000    42.75042
    13.60000    29.75159     0.00000    42.75042
    13.70000    29.98089     0.00000    42.75042
    13.80000    30.21019     0.00000    42.75042
    13.90000    30.43949     0.00000    42.75042
    14.00000    30.66879     0.00000    42.75042
    14.10000    30.89809     0.00000    42.75042
    14.20000    31.12739     0.00000    42.75042
    14.30000    31.35669     0.00000    42.75042
    14.40000    31.58599     0.00000    42.75042
    14.50000    31.81529     0.00000    42.75042
    14.60000    32.04459     0.00000    42.75042
    14.70000    32.27389     0.00000    42.75042
    14.80000    32.50318     0.00000    42.75042
    14.90000    32.73248     0.00000    42.75042
    15.00000    32.96178     0.00000    42.75042
    15.10000    33.19108     0.00000    42.75042
    15.20000    33.42038     0.00000    42.75042
    15.30000    33.64968     0.00000    42.75042
    15.40000    33.87898     0.00000    42.75042
    15.50000    34.10828     0.00000    42.75042
    15.60000    34.33758     0.00000    42.75042
    15.70000    34.56688     0.00000    42.75042
    15.80000    34.79618     0.00000    42.75042
    15.90000    35.02548     0.00000    42.75042
    16.00000    35.25478     0.00000    42.75042
    16.10000    35.48408     0.00000    42.75042
    16.20000    35.71338     0.00000    42.75042
    16.30000    35.94268     0.00000    42.75042
    16.40000    36.17197     0.00000    42.75042
    16.50000    36.45860     0.00000    42.75042
    16.60000    36.68790     0.00000    42.75042
    16.70000    36.91720     0.00000    42.75042
    16.80000    37.14650     0.00000    42.75042
    16.90000    37.37580     0.00000    42.75042
    17.00000    37.60510     0.00000    42.75042
    17.10000    37.83439     0.00000    42.75042
    17.20000    38.06369     0.00000    42.75042
    17.30000    38.35032     0.00000    42.75042
    17.40000    38.57962     0.00000    42.75042
    17.50000    38.80892     0.00000    42.75042
    17.60000    39.03822     0.00000    42.75042
    17.70000    39.26752     0.00000    42.75042
    17.80000    39.55414     0.00000    42.75042
    17.90000    39.78344     0.00000    42.75042
    18.00000    40.01274     0.00000    42.75042
    18.10000    40.24204     0.00000    42.75042
    18.20000    40.47134     0.00000    42.75042
    18.30000    40.75796     0.00000    42.75042
    18.40000    40.98726     0.00000    42.75042
    18.50000    41.21656     0.00000    42.75042
    18.60000    41.50318     0.00000    42.75042
    18.70000    41.73248     0.00000    42.75042
    18.80000    41.96178     0.00000    42.75042
    18.90000    42.24841     0.00000    42.75042
    19.00000    42.47771     0.00000    42.75042
    19.10000    42.70701     0.00000    42.75042
    19.20000    42.99363     0.00000    42.75042
    19.30000    43.22293     0.00000    42.75042
    19.40000    43.45223     0.00000    42.75042
    19.50000    43.73885     0.00000    42.75042
    19.60000    43.96815     0.00000    42.75042
    19.70000    44.25478     0.00000    42.75042
    19.80000    44.48408     0.00000    42.75042
    19.90000    44.77070     0.00000    42.75042
    20.00000    45.00000     0.00000    42.75042
    20.10000    45.28662     0.00000    42.75042
    20.20000    45.51592     0.00000    42.75042
    20.30000    45.80255     0.00000    42.75042
    20.40000    46.03185     0.00000    42.75042
    20.50000    46.31847     0.00000    42.75042
    20.60000    46.54777     0.00000    42.75042
    20.70000    46.83439     0.00000    42.75042
    20.80000    47.12102     0.00000    42.75042
    20.90000    47.35032     0.00000    42.75042
    21.00000    47.63694     0.00000    42.75042
    21.10000    47.92357     0.00000    42.75042
    21.20000    48.15287     0.00000    42.75042
    21.30000    48.43949     0.00000    42.75042
    21.40000    48.72611     0.00000    42.75042
    21.50000    49.01274     0.00000    42.75042
    21.60000    49.24204     0.00000    42.75042
    21.70000    49.52866     0.00000    42.75042
    21.80000    49.81529     0.00000    42.75042
    21.90000    50.10191     0.00000    42.75042
    22.00000    50.38854     0.00000    42.75042
    22.10000    50.67516     0.00000    42.75042
    22.20000    50.96178     0.00000    42.75042
    22.30000    51.24841     0.00000    42.75042
    22.40000    51.53503     0.00000    42.75042
    22.50000    51.82166     0.00000    42.75042
    22.60000    52.10828     0.00000    42.75042
    22.70000    52.39490     0.00000    42.75042
    22.80000    52.68153     0.00000    42.75042
    22.90000    53.02548     0.00000    42.75042
    23.00000    53.31210     0.00000    42.75042
    23.10000    53.59873     0.00000    42.75042
    23.20000    53.88535     0.00000    42.75042
    23.30000    54.22930     0.00000    42.75042
    23.40000    54.51592     0.00000    42.75042
    23.50000    54.85987     0.00000    42.75042
    23.60000    55.14650     0.00000    42.75042
    23.70000    55.49045     0.00000    42.75042
    23.80000    55.77707     0.00000    42.75042
    23.90000    56.12102     0.00000    42.75042
    24.00000    56.46497     0.00000    42.75042
    24.10000    56.75159     0.00000    42.75042
    24.20000    57.09554     0.00000    42.75042
    24.30000    57.43949     0.00000    42.75042
    24.40000    57.78344     0.00000    42.75042
    24.50000    58.12739     0.00000    42.75042
    24.60000    58.47134     0.00000    42.75042
    24.70000    58.81529     0.00000    42.75042
    24.80000    59.15924     0.00000    42.75042
    24.90000    59.56051     0.00000    42.75042
    25.00000    59.90446     0.00000    42.75042
    25.10000    60.24841     0.00000    42.75042
    25.20000    60.64968     0.00000    42.75042
    25.30000    60.99363     0.00000    42.75042
    25.40000    61.39490     0.00000    42.75042
    25.50000    61.79618     0.00000    42.75042
    25.60000    62.19745     0.00000    42.75042
    25.70000    62.59873     0.00000    42.75042
    25.80000    63.00000     0.00000    42.75042
    25.90000    63.40127     0.00000    42.75042
    26.00000    63.80255     0.00000    42.75042
    26.10000    64.26115     0.00000    42.75042
    26.20000    64.66242     0.00000    42.75042
    26.30000    65.12102     0.00000    42.75042
    26.40000    65.57962     0.00000    42.75042
    26.50000    66.03822     0.00000    42.75042
    26.60000    66.49682     0.00000    42.75042
    26.70000    67.01274     0.00000    42.75042
    26.80000    67.47134     0.00000    42.75042
    26.90000    67.98726     0.00000    42.75042
    27.00000    68.50318     0.00000    42.75042
    27.10000    69.01911     0.00000    42.75042
    27.20000    69.59236     0.00000    42.75042
    27.30000    70.10828     0.00000    42.75042
    27.40000    70.68153     0.00000    42.75042
    27.50000    71.25478     0.00000    42.75042
    27.60000    71.88535     0.00000    42.75042
    27.70000    72.51592     0.00000    42.75042
    27.80000    73.20382     0.00000    42.75042
    27.90000    73.83439     0.00000    42.75042
    28.00000    74.57962     0.00000    42.75042
    28.10000    75.32484     0.00000    42.75042
    28.20000    76.07006     0.00000    42.75042
    28.30000    76.92994     0.00000    42.75042
    28.40000    77.78981     0.00000    42.75042
    28.50000    78.76433     0.00000    42.75042
    28.60000    79.79618     0.00000    42.75042
    28.70000    80.94268     0.00000    42.75042
    28.80000    82.26115     0.00000    42.75042
    28.90000    83.80892     0.00000    42.75042
    29.00000    85.92994     0.00000    42.75042
    29.10000    90.00000     0.00000    42.75042
    29.20000    90.00000     0.00000    42.75042
    29.30000    90.00000     0.00000    42.75042
    29.40000    90.00000     0.00000    42.75042
    29.50000    90.00000     0.00000    42.75042
    29.60000    90.00000     0.00000    42.75042
    29.70000    90.00000     0.00000    42.75042
    29.80000    90.00000     0.00000    42.75042
    29.90000    90.00000     0.00000    42.75042
    30.00000    90.00000     0.00000    42.75042
    30.10000    90.00000     0.00000    42.75042
    30.20000    90.00000     0.00000    42.75042
    30.30000    90.00000     0.00000    42.75042
    30.40000    90.00000     0.00000    42.75042
    30.50000    90.00000     0.00000    42.75042
    30.60000    90.00000     0.00000    42.75042
    30.70000    90.00000     0.00000    42.75042
    30.80000    90.00000     0.00000    42.75042
    30.90000    90.00000     0.00000    42.75042
    31.00000    90.00000     0.00000    42.75042
    31.10000    90.00000     0.00000    42.75042
    31.20000    90.00000     0.00000    42.75042
    31.30000    90.00000     0.00000    42.75042
    31.40000    90.00000     0.00000    42.75042
    31.50000    90.00000     0.00000    42.75042
    31.60000    90.00000     0.00000    42.75042
    31.70000    90.00000     0.00000    42.75042
    31.80000    90.00000     0.00000    42.75042
    31.90000    90.00000     0.00000    42.75042
    32.00000    90.00000     0.00000    42.75042
    32.10000    90.00000     0.00000    42.75042
    32.20000    90.00000     0.00000    42.75042
    32.30000    90.00000     0.00000    42.75042
    32.40000    90.00000     0.00000    42.75042
    32.50000    90.00000     0.00000    42.75042
    32.60000    90.00000     0.00000    42.75042
    32.70000    90.00000     0.00000    42.75042
    32.80000    90.00000     0.00000    42.75042
    32.90000    90.00000     0.00000    42.75042
    33.00000    90.00000     0.00000    42.75042
    33.10000    90.00000     0.00000    42.75042
    33.20000    90.00000     0.00000    42.75042
    33.30000    90.00000     0.00000    42.75042
    33.40000    90.00000     0.00000    42.75042
    33.50000    90.00000     0.00000    42.75042
    33.60000    90.00000     0.00000    42.75042
    33.70000    90.00000     0.00000    42.75042
    33.80000    90.00000     0.00000    42.75042
    33.90000    90.00000     0.00000    42.75042
    34.00000    90.00000     0.00000    42.75042
    34.10000    90.00000     0.00000    42.75042
    34.20000    90.00000     0.00000    42.75042
    34.30000    90.00000     0.00000    42.75042
    34.40000    90.00000     0.00000    42.75042
    34.50000    90.00000     0.00000    42.75042
    34.60000    90.00000     0.00000    42.75042
    34.70000    90.00000     0.00000    42.75042
    34.80000    90.00000     0.00000    42.75042
    34.90000    90.00000     0.00000    42.75042
    35.00000    90.00000     0.00000    42.75042
    35.10000    90.00000     0.00000    42.75042
    35.20000    90.00000     0.00000    42.75042
    35.30000    90.00000     0.00000    42.75042
    35.40000    90.00000     0.00000    42.75042
    35.50000    90.00000     0.00000    42.75042
    35.60000    90.00000     0.00000    42.75042
    35.70000    90.00000     0.00000    42.75042
    35.80000    90.00000     0.00000    42.75042
    35.90000    90.00000     0.00000    42.75042
    36.00000    90.00000     0.00000    42.75042
    36.10000    90.00000     0.00000    42.75042
    36.20000    90.00000     0.00000    42.75042
    36.30000    90.00000     0.00000    42.75042
    36.40000    90.00000     0.00000    42.75042
    36.50000    90.00000     0.00000    42.75042
    36.60000    90.00000     0.00000    42.75042
    36.70000    90.00000     0.00000    42.75042
    36.80000    90.00000     0.00000    42.75042
    36.90000    90.00000     0.00000    42.75042
    37.00000    90.00000     0.00000    42.75042
    37.10000    90.00000     0.00000    42.75042
    37.20000    90.00000     0.00000    42.75042
    37.30000    90.00000     0.00000    42.75042
    37.40000    90.00000     0.00000    42.75042
    37.50000    90.00000     0.00000    42.75042
    37.60000    90.00000     0.00000    42.75042
    37.70000    90.00000     0.00000    42.75042
    37.80000    90.00000     0.00000    42.75042
    37.90000    90.00000     0.00000    42.75042
    38.00000    90.00000     0.00000    42.75042
    38.10000    90.00000     0.00000    42.75042
    38.20000    90.00000     0.00000    42.75042
    38.30000    90.00000     0.00000    42.75042
    38.40000    90.00000     0.00000    42.75042
    38.50000    90.00000     0.00000    42.75042
    38.60000    90.00000     0.00000    42.75042
    38.70000    90.00000     0.00000    42.75042
    38.80000    90.00000     0.00000    42.75042
    38.90000    90.00000     0.00000    42.75042
    39.00000    90.00000     0.00000    42.75042
    39.10000    90.00000     0.00000    42.75042
    39.20000    90.00000     0.00000    42.75042
    39.30000    90.00000     0.00000    42.75042
    39.40000    90.00000     0.00000    42.75042
    39.50000    90.00000     0.00000    42.75042
    39.60000    90.00000     0.00000    42.75042
    39.70000    90.00000     0.00000    42.75042
    39.80000    90.00000     0.00000    42.75042
    39.90000    90.00000     0.00000    42.75042
    40.00000    90.00000     0.00000    42.75042
