 # applied field (T), theta (degree), phi (degree), abs [muB/unitcell], abs [T]
       0.00000000      90.00000000      90.00000000      40.19838179       1.39981876
       0.10000000      90.00000000     360.00000000      40.19857382       1.39982545
       0.20000000      90.00000000     360.00000000      40.19876588       1.39983214
       0.30000000      90.00000000     360.00000000      40.19895797       1.39983883
       0.40000000      90.00000000     360.00000000      40.19915010       1.39984552
       0.50000000      90.00000000     360.00000000      40.19934225       1.39985221
       0.60000000      90.00000000     360.00000000      40.19953444       1.39985890
       0.70000000      90.00000000     360.00000000      40.19972666       1.39986559
       0.80000000      90.00000000     360.00000000      40.19991892       1.39987229
       0.90000000      90.00000000     360.00000000      40.20011121       1.39987898
       1.00000000      90.00000000     360.00000000      40.20030352       1.39988568
       1.10000000      90.00000000     360.00000000      40.20049587       1.39989238
       1.20000000      90.00000000     360.00000000      40.20068826       1.39989908
       1.30000000      90.00000000     360.00000000      40.20088067       1.39990578
       1.40000000      90.00000000     360.00000000      40.20107312       1.39991248
       1.50000000      90.00000000     360.00000000      40.20126560       1.39991918
       1.60000000      90.00000000     360.00000000      40.20145812       1.39992589
       1.70000000      90.00000000     360.00000000      40.20165066       1.39993259
       1.80000000      90.00000000     360.00000000      40.20184324       1.39993930
       1.90000000      90.00000000     360.00000000      40.20203585       1.39994601
       2.00000000      90.00000000     360.00000000      40.20222849       1.39995271
       2.10000000      90.00000000     360.00000000      40.20242117       1.39995942
       2.20000000      90.00000000     360.00000000      40.20261387       1.39996613
       2.30000000      90.00000000     360.00000000      40.20280661       1.39997285
       2.40000000      90.00000000     360.00000000      40.20299939       1.39997956
       2.50000000      90.00000000     360.00000000      40.20319219       1.39998627
       2.60000000      90.00000000     360.00000000      40.20338503       1.39999299
       2.70000000      90.00000000     360.00000000      40.20357790       1.39999970
       2.80000000      90.00000000     360.00000000      40.20377081       1.40000642
       2.90000000      90.00000000     360.00000000      40.20396374       1.40001314
       3.00000000      90.00000000     360.00000000      40.20415671       1.40001986
       3.10000000      90.00000000     360.00000000      40.20434971       1.40002658
       3.20000000      90.00000000     360.00000000      40.20454275       1.40003330
       3.30000000      90.00000000     360.00000000      40.20473581       1.40004003
       3.40000000      90.00000000     360.00000000      40.20492891       1.40004675
       3.50000000      90.00000000     360.00000000      40.20512205       1.40005348
       3.60000000      90.00000000     360.00000000      40.20531521       1.40006020
       3.70000000      90.00000000     360.00000000      40.20550841       1.40006693
       3.80000000      90.00000000     360.00000000      40.20570164       1.40007366
       3.90000000      90.00000000     360.00000000      40.20589491       1.40008039
       4.00000000      90.00000000     360.00000000      40.20608820       1.40008712
       4.10000000      90.00000000     360.00000000      40.20628153       1.40009385
       4.20000000      90.00000000     360.00000000      40.20647490       1.40010059
       4.30000000      90.00000000     360.00000000      40.20666829       1.40010732
       4.40000000      90.00000000     360.00000000      40.20686172       1.40011406
       4.50000000      90.00000000     360.00000000      40.20705518       1.40012079
       4.60000000      90.00000000     360.00000000      40.20724868       1.40012753
       4.70000000      90.00000000     360.00000000      40.20744221       1.40013427
       4.80000000      90.00000000     360.00000000      40.20763577       1.40014101
       4.90000000      90.00000000     360.00000000      40.20782936       1.40014775
       5.00000000      90.00000000     360.00000000      40.20802299       1.40015449
       5.10000000      90.00000000     360.00000000      40.20821665       1.40016124
       5.20000000      90.00000000     360.00000000      40.20841034       1.40016798
       5.30000000      90.00000000     360.00000000      40.20860407       1.40017473
       5.40000000      90.00000000     360.00000000      40.20879783       1.40018148
       5.50000000      90.00000000     360.00000000      40.20899162       1.40018822
       5.60000000      90.00000000     360.00000000      40.20918545       1.40019497
       5.70000000      90.00000000     360.00000000      40.20937931       1.40020173
       5.80000000      90.00000000     360.00000000      40.20957320       1.40020848
       5.90000000      90.00000000     360.00000000      40.20976713       1.40021523
       6.00000000      90.00000000     360.00000000      40.20996109       1.40022198
       6.10000000      90.00000000     360.00000000      40.21015508       1.40022874
       6.20000000      90.00000000     360.00000000      40.21034911       1.40023550
       6.30000000      90.00000000     360.00000000      40.21054317       1.40024225
       6.40000000      90.00000000     360.00000000      40.21073726       1.40024901
       6.50000000      90.00000000     360.00000000      40.21093139       1.40025577
       6.60000000      90.00000000     360.00000000      40.21112555       1.40026253
       6.70000000      90.00000000     360.00000000      40.21131974       1.40026930
       6.80000000      90.00000000     360.00000000      40.21151397       1.40027606
       6.90000000      90.00000000     360.00000000      40.21170823       1.40028282
       7.00000000      90.00000000     360.00000000      40.21190252       1.40028959
       7.10000000      90.00000000     360.00000000      40.21209685       1.40029636
       7.20000000      90.00000000     360.00000000      40.21229121       1.40030313
       7.30000000      90.00000000     360.00000000      40.21248561       1.40030990
       7.40000000      90.00000000     360.00000000      40.21268004       1.40031667
       7.50000000      90.00000000     360.00000000      40.21287450       1.40032344
       7.60000000      90.00000000     360.00000000      40.21306900       1.40033021
       7.70000000      90.00000000     360.00000000      40.21326353       1.40033698
       7.80000000      90.00000000     360.00000000      40.21345809       1.40034376
       7.90000000      90.00000000     360.00000000      40.21365269       1.40035054
       8.00000000      90.00000000     360.00000000      40.21384732       1.40035731
       8.10000000      90.00000000     360.00000000      40.21404198       1.40036409
       8.20000000      90.00000000     360.00000000      40.21423668       1.40037087
       8.30000000      90.00000000     360.00000000      40.21443141       1.40037765
       8.40000000      90.00000000     360.00000000      40.21462618       1.40038444
       8.50000000      90.00000000     360.00000000      40.21482098       1.40039122
       8.60000000      90.00000000     360.00000000      40.21501581       1.40039800
       8.70000000      90.00000000     360.00000000      40.21521068       1.40040479
       8.80000000      90.00000000     360.00000000      40.21540558       1.40041158
       8.90000000      90.00000000     360.00000000      40.21560052       1.40041836
       9.00000000      90.00000000     360.00000000      40.21579549       1.40042515
       9.10000000      90.00000000     360.00000000      40.21599049       1.40043194
       9.20000000      90.00000000     360.00000000      40.21618553       1.40043874
       9.30000000      90.00000000     360.00000000      40.21638060       1.40044553
       9.40000000      90.00000000     360.00000000      40.21657570       1.40045232
       9.50000000      90.00000000     360.00000000      40.21677084       1.40045912
       9.60000000      90.00000000     360.00000000      40.21696602       1.40046592
       9.70000000      90.00000000     360.00000000      40.21716123       1.40047271
       9.80000000      90.00000000     360.00000000      40.21735647       1.40047951
       9.90000000      90.00000000     360.00000000      40.21755174       1.40048631
      10.00000000      90.00000000     360.00000000      40.21774705       1.40049311
      10.10000000      90.00000000     360.00000000      40.21794240       1.40049992
      10.20000000      90.00000000     360.00000000      40.21813778       1.40050672
      10.30000000      90.00000000     360.00000000      40.21833319       1.40051352
      10.40000000      90.00000000     360.00000000      40.21852864       1.40052033
      10.50000000      90.00000000     360.00000000      40.21872412       1.40052714
      10.60000000      90.00000000     360.00000000      40.21891964       1.40053395
      10.70000000      90.00000000     360.00000000      40.21911519       1.40054076
      10.80000000      90.00000000     360.00000000      40.21931077       1.40054757
      10.90000000      90.00000000     360.00000000      40.21950639       1.40055438
      11.00000000      90.00000000     360.00000000      40.21970204       1.40056119
      11.10000000      90.00000000     360.00000000      40.21989773       1.40056801
      11.20000000      90.00000000     360.00000000      40.22009345       1.40057482
      11.30000000      90.00000000     360.00000000      40.22028921       1.40058164
      11.40000000      90.00000000     360.00000000      40.22048500       1.40058846
      11.50000000      90.00000000     360.00000000      40.22068083       1.40059528
      11.60000000      90.00000000     360.00000000      40.22087669       1.40060210
      11.70000000      90.00000000     360.00000000      40.22107258       1.40060892
      11.80000000      90.00000000     360.00000000      40.22126851       1.40061574
      11.90000000      90.00000000     360.00000000      40.22146447       1.40062256
      12.00000000      90.00000000     360.00000000      40.22166047       1.40062939
      12.10000000      90.00000000     360.00000000      40.22185651       1.40063622
      12.20000000      90.00000000     360.00000000      40.22205257       1.40064304
      12.30000000      90.00000000     360.00000000      40.22224868       1.40064987
      12.40000000      90.00000000     360.00000000      40.22244481       1.40065670
      12.50000000      90.00000000     360.00000000      40.22264099       1.40066353
      12.60000000      90.00000000     360.00000000      40.22283719       1.40067037
      12.70000000      90.00000000     360.00000000      40.22303343       1.40067720
      12.80000000      90.00000000     360.00000000      40.22322971       1.40068403
      12.90000000      90.00000000     360.00000000      40.22342602       1.40069087
      13.00000000      90.00000000     360.00000000      40.22362237       1.40069771
      13.10000000      90.00000000     360.00000000      40.22381875       1.40070455
      13.20000000      90.00000000     360.00000000      40.22401516       1.40071139
      13.30000000      90.00000000     360.00000000      40.22421161       1.40071823
      13.40000000      90.00000000     360.00000000      40.22440810       1.40072507
      13.50000000      90.00000000     360.00000000      40.22460462       1.40073191
      13.60000000      90.00000000     360.00000000      40.22480117       1.40073876
      13.70000000      90.00000000     360.00000000      40.22499776       1.40074560
      13.80000000      90.00000000     360.00000000      40.22519439       1.40075245
      13.90000000      90.00000000     360.00000000      40.22539105       1.40075930
      14.00000000      90.00000000     360.00000000      40.22558774       1.40076615
      14.10000000      90.00000000     360.00000000      40.22578447       1.40077300
      14.20000000      90.00000000     360.00000000      40.22598124       1.40077985
      14.30000000      90.00000000     360.00000000      40.22617804       1.40078670
      14.40000000      90.00000000     360.00000000      40.22637487       1.40079356
      14.50000000      90.00000000     360.00000000      40.22657175       1.40080041
      14.60000000      90.00000000     360.00000000      40.22676865       1.40080727
      14.70000000      90.00000000     360.00000000      40.22696559       1.40081413
      14.80000000      90.00000000     360.00000000      40.22716257       1.40082099
      14.90000000      90.00000000     360.00000000      40.22735958       1.40082785
      15.00000000      90.00000000     360.00000000      40.22755663       1.40083471
      15.10000000      90.00000000     360.00000000      40.22775371       1.40084157
      15.20000000      90.00000000     360.00000000      40.22795083       1.40084844
      15.30000000      90.00000000     360.00000000      40.22814798       1.40085530
      15.40000000      90.00000000     360.00000000      40.22834517       1.40086217
      15.50000000      90.00000000     360.00000000      40.22854239       1.40086904
      15.60000000      90.00000000     360.00000000      40.22873965       1.40087591
      15.70000000      90.00000000     360.00000000      40.22893694       1.40088278
      15.80000000      90.00000000     360.00000000      40.22913427       1.40088965
      15.90000000      90.00000000     360.00000000      40.22933164       1.40089652
      16.00000000      90.00000000     360.00000000      40.22952904       1.40090339
      16.10000000      90.00000000     360.00000000      40.22972647       1.40091027
      16.20000000      90.00000000     360.00000000      40.22992394       1.40091715
      16.30000000      90.00000000     360.00000000      40.23012145       1.40092402
      16.40000000      90.00000000     360.00000000      40.23031899       1.40093090
      16.50000000      90.00000000     360.00000000      40.23051657       1.40093778
      16.60000000      90.00000000     360.00000000      40.23071419       1.40094466
      16.70000000      90.00000000     360.00000000      40.23091183       1.40095155
      16.80000000      90.00000000     360.00000000      40.23110952       1.40095843
      16.90000000      90.00000000     360.00000000      40.23130724       1.40096532
      17.00000000      90.00000000     360.00000000      40.23150500       1.40097220
      17.10000000      90.00000000     360.00000000      40.23170279       1.40097909
      17.20000000      90.00000000     360.00000000      40.23190062       1.40098598
      17.30000000      90.00000000     360.00000000      40.23209848       1.40099287
      17.40000000      90.00000000     360.00000000      40.23229638       1.40099976
      17.50000000      90.00000000     360.00000000      40.23249431       1.40100665
      17.60000000      90.00000000     360.00000000      40.23269229       1.40101355
      17.70000000      90.00000000     360.00000000      40.23289029       1.40102044
      17.80000000      90.00000000     360.00000000      40.23308833       1.40102734
      17.90000000      90.00000000     360.00000000      40.23328641       1.40103424
      18.00000000      90.00000000     360.00000000      40.23348453       1.40104114
      18.10000000      90.00000000     360.00000000      40.23368268       1.40104804
      18.20000000      90.00000000     360.00000000      40.23388086       1.40105494
      18.30000000      90.00000000     360.00000000      40.23407909       1.40106184
      18.40000000      90.00000000     360.00000000      40.23427734       1.40106874
      18.50000000      90.00000000     360.00000000      40.23447564       1.40107565
      18.60000000      90.00000000     360.00000000      40.23467397       1.40108256
      18.70000000      90.00000000     360.00000000      40.23487234       1.40108946
      18.80000000      90.00000000     360.00000000      40.23507074       1.40109637
      18.90000000      90.00000000     360.00000000      40.23526918       1.40110328
      19.00000000      90.00000000     360.00000000      40.23546765       1.40111019
      19.10000000      90.00000000     360.00000000      40.23566616       1.40111711
      19.20000000      90.00000000     360.00000000      40.23586471       1.40112402
      19.30000000      90.00000000     360.00000000      40.23606329       1.40113094
      19.40000000      90.00000000     360.00000000      40.23626191       1.40113785
      19.50000000      90.00000000     360.00000000      40.23646057       1.40114477
      19.60000000      90.00000000     360.00000000      40.23665926       1.40115169
      19.70000000      90.00000000     360.00000000      40.23685799       1.40115861
      19.80000000      90.00000000     360.00000000      40.23705675       1.40116553
      19.90000000      90.00000000     360.00000000      40.23725555       1.40117245
      20.00000000      90.00000000     360.00000000      40.23745439       1.40117938
      20.10000000      90.00000000     360.00000000      40.23765326       1.40118630
      20.20000000      90.00000000     360.00000000      40.23785217       1.40119323
      20.30000000      90.00000000     360.00000000      40.23805112       1.40120016
      20.40000000      90.00000000     360.00000000      40.23825010       1.40120709
      20.50000000      90.00000000     360.00000000      40.23844912       1.40121402
      20.60000000      90.00000000     360.00000000      40.23864818       1.40122095
      20.70000000      90.00000000     360.00000000      40.23884727       1.40122788
      20.80000000      90.00000000     360.00000000      40.23904640       1.40123482
      20.90000000      90.00000000     360.00000000      40.23924556       1.40124175
      21.00000000      90.00000000     360.00000000      40.23944477       1.40124869
      21.10000000      90.00000000     360.00000000      40.23964400       1.40125563
      21.20000000      90.00000000     360.00000000      40.23984328       1.40126256
      21.30000000      90.00000000     360.00000000      40.24004259       1.40126951
      21.40000000      90.00000000     360.00000000      40.24024194       1.40127645
      21.50000000      90.00000000     360.00000000      40.24044133       1.40128339
      21.60000000      90.00000000     360.00000000      40.24064075       1.40129033
      21.70000000      90.00000000     360.00000000      40.24084021       1.40129728
      21.80000000      90.00000000     360.00000000      40.24103970       1.40130423
      21.90000000      90.00000000     360.00000000      40.24123923       1.40131118
      22.00000000      90.00000000     360.00000000      40.24143880       1.40131813
      22.10000000      90.00000000     360.00000000      40.24163841       1.40132508
      22.20000000      90.00000000     360.00000000      40.24183805       1.40133203
      22.30000000      90.00000000     360.00000000      40.24203773       1.40133898
      22.40000000      90.00000000     360.00000000      40.24223745       1.40134594
      22.50000000      90.00000000     360.00000000      40.24243720       1.40135289
      22.60000000      90.00000000     360.00000000      40.24263699       1.40135985
      22.70000000      90.00000000     360.00000000      40.24283682       1.40136681
      22.80000000      90.00000000     360.00000000      40.24303668       1.40137377
      22.90000000      90.00000000     360.00000000      40.24323658       1.40138073
      23.00000000      90.00000000     360.00000000      40.24343652       1.40138769
      23.10000000      90.00000000     360.00000000      40.24363649       1.40139465
      23.20000000      90.00000000     360.00000000      40.24383651       1.40140162
      23.30000000      90.00000000     360.00000000      40.24403655       1.40140859
      23.40000000      90.00000000     360.00000000      40.24423664       1.40141555
      23.50000000      90.00000000     360.00000000      40.24443676       1.40142252
      23.60000000      90.00000000     360.00000000      40.24463692       1.40142949
      23.70000000      90.00000000     360.00000000      40.24483712       1.40143646
      23.80000000      90.00000000     360.00000000      40.24503736       1.40144344
      23.90000000      90.00000000     360.00000000      40.24523763       1.40145041
      24.00000000      90.00000000     360.00000000      40.24543794       1.40145739
      24.10000000      90.00000000     360.00000000      40.24563829       1.40146436
      24.20000000      90.00000000     360.00000000      40.24583867       1.40147134
      24.30000000      90.00000000     360.00000000      40.24603909       1.40147832
      24.40000000      90.00000000     360.00000000      40.24623955       1.40148530
      24.50000000      90.00000000     360.00000000      40.24644004       1.40149228
      24.60000000      90.00000000     360.00000000      40.24664058       1.40149927
      24.70000000      90.00000000     360.00000000      40.24684115       1.40150625
      24.80000000      90.00000000     360.00000000      40.24704176       1.40151324
      24.90000000      90.00000000     360.00000000      40.24724240       1.40152022
      25.00000000      90.00000000     360.00000000      40.24744309       1.40152721
      25.10000000      90.00000000     360.00000000      40.24764381       1.40153420
      25.20000000      90.00000000     360.00000000      40.24784456       1.40154119
      25.30000000      90.00000000     360.00000000      40.24804536       1.40154818
      25.40000000      90.00000000     360.00000000      40.24824619       1.40155518
      25.50000000      90.00000000     360.00000000      40.24844706       1.40156217
      25.60000000      90.00000000     360.00000000      40.24864797       1.40156917
      25.70000000      90.00000000     360.00000000      40.24884892       1.40157617
      25.80000000      90.00000000     360.00000000      40.24904990       1.40158316
      25.90000000      90.00000000     360.00000000      40.24925092       1.40159016
      26.00000000      90.00000000     360.00000000      40.24945198       1.40159717
      26.10000000      90.00000000     360.00000000      40.24965308       1.40160417
      26.20000000      90.00000000     360.00000000      40.24985421       1.40161117
      26.30000000      90.00000000     360.00000000      40.25005538       1.40161818
      26.40000000      90.00000000     360.00000000      40.25025659       1.40162519
      26.50000000      90.00000000     360.00000000      40.25045784       1.40163219
      26.60000000      90.00000000     360.00000000      40.25065913       1.40163920
      26.70000000      90.00000000     360.00000000      40.25086045       1.40164621
      26.80000000      90.00000000     360.00000000      40.25106181       1.40165323
      26.90000000      90.00000000     360.00000000      40.25126321       1.40166024
      27.00000000      90.00000000     360.00000000      40.25146465       1.40166725
      27.10000000      90.00000000     360.00000000      40.25166612       1.40167427
      27.20000000      90.00000000     360.00000000      40.25186763       1.40168129
      27.30000000      90.00000000     360.00000000      40.25206919       1.40168830
      27.40000000      90.00000000     360.00000000      40.25227077       1.40169532
      27.50000000      90.00000000     360.00000000      40.25247240       1.40170235
      27.60000000      90.00000000     360.00000000      40.25267407       1.40170937
      27.70000000      90.00000000     360.00000000      40.25287577       1.40171639
      27.80000000      90.00000000     360.00000000      40.25307751       1.40172342
      27.90000000      90.00000000     360.00000000      40.25327929       1.40173044
      28.00000000      90.00000000     360.00000000      40.25348111       1.40173747
      28.10000000      90.00000000     360.00000000      40.25368296       1.40174450
      28.20000000      90.00000000     360.00000000      40.25388486       1.40175153
      28.30000000      90.00000000     360.00000000      40.25408679       1.40175856
      28.40000000      90.00000000     360.00000000      40.25428876       1.40176560
      28.50000000      90.00000000     360.00000000      40.25449077       1.40177263
      28.60000000      90.00000000     360.00000000      40.25469281       1.40177967
      28.70000000      90.00000000     360.00000000      40.25489490       1.40178670
      28.80000000      90.00000000     360.00000000      40.25509702       1.40179374
      28.90000000      90.00000000     360.00000000      40.25529918       1.40180078
      29.00000000      90.00000000     360.00000000      40.25550138       1.40180782
      29.10000000      90.00000000     360.00000000      40.25570362       1.40181487
      29.20000000      90.00000000     360.00000000      40.25590590       1.40182191
      29.30000000      90.00000000     360.00000000      40.25610822       1.40182895
      29.40000000      90.00000000     360.00000000      40.25631057       1.40183600
      29.50000000      90.00000000     360.00000000      40.25651296       1.40184305
      29.60000000      90.00000000     360.00000000      40.25671539       1.40185010
      29.70000000      90.00000000     360.00000000      40.25691786       1.40185715
      29.80000000      90.00000000     360.00000000      40.25712037       1.40186420
      29.90000000      90.00000000     360.00000000      40.25732292       1.40187125
      30.00000000      90.00000000     360.00000000      40.25752550       1.40187831
      30.10000000      90.00000000     360.00000000      40.25772812       1.40188536
      30.20000000      90.00000000     360.00000000      40.25793079       1.40189242
      30.30000000      90.00000000     360.00000000      40.25813349       1.40189948
      30.40000000      90.00000000     360.00000000      40.25833623       1.40190654
      30.50000000      90.00000000     360.00000000      40.25853901       1.40191360
      30.60000000      90.00000000     360.00000000      40.25874182       1.40192066
      30.70000000      90.00000000     360.00000000      40.25894468       1.40192773
      30.80000000      90.00000000     360.00000000      40.25914757       1.40193479
      30.90000000      90.00000000     360.00000000      40.25935051       1.40194186
      31.00000000      90.00000000     360.00000000      40.25955348       1.40194893
      31.10000000      90.00000000     360.00000000      40.25975649       1.40195600
      31.20000000      90.00000000     360.00000000      40.25995954       1.40196307
      31.30000000      90.00000000     360.00000000      40.26016263       1.40197014
      31.40000000      90.00000000     360.00000000      40.26036576       1.40197721
      31.50000000      90.00000000     360.00000000      40.26056892       1.40198429
      31.60000000      90.00000000     360.00000000      40.26077213       1.40199137
      31.70000000      90.00000000     360.00000000      40.26097537       1.40199844
      31.80000000      90.00000000     360.00000000      40.26117866       1.40200552
      31.90000000      90.00000000     360.00000000      40.26138198       1.40201260
      32.00000000      90.00000000     360.00000000      40.26158534       1.40201968
      32.10000000      90.00000000     360.00000000      40.26178874       1.40202677
      32.20000000      90.00000000     360.00000000      40.26199218       1.40203385
      32.30000000      90.00000000     360.00000000      40.26219566       1.40204094
      32.40000000      90.00000000     360.00000000      40.26239918       1.40204802
      32.50000000      90.00000000     360.00000000      40.26260274       1.40205511
      32.60000000      90.00000000     360.00000000      40.26280634       1.40206220
      32.70000000      90.00000000     360.00000000      40.26300997       1.40206929
      32.80000000      90.00000000     360.00000000      40.26321365       1.40207639
      32.90000000      90.00000000     360.00000000      40.26341736       1.40208348
      33.00000000      90.00000000     360.00000000      40.26362112       1.40209057
      33.10000000      90.00000000     360.00000000      40.26382491       1.40209767
      33.20000000      90.00000000     360.00000000      40.26402874       1.40210477
      33.30000000      90.00000000     360.00000000      40.26423261       1.40211187
      33.40000000      90.00000000     360.00000000      40.26443652       1.40211897
      33.50000000      90.00000000     360.00000000      40.26464047       1.40212607
      33.60000000      90.00000000     360.00000000      40.26484446       1.40213318
      33.70000000      90.00000000     360.00000000      40.26504849       1.40214028
      33.80000000      90.00000000     360.00000000      40.26525256       1.40214739
      33.90000000      90.00000000     360.00000000      40.26545667       1.40215449
      34.00000000      90.00000000     360.00000000      40.26566082       1.40216160
      34.10000000      90.00000000     360.00000000      40.26586501       1.40216871
      34.20000000      90.00000000     360.00000000      40.26606923       1.40217582
      34.30000000      90.00000000     360.00000000      40.26627350       1.40218294
      34.40000000      90.00000000     360.00000000      40.26647781       1.40219005
      34.50000000      90.00000000     360.00000000      40.26668215       1.40219717
      34.60000000      90.00000000     360.00000000      40.26688654       1.40220429
      34.70000000      90.00000000     360.00000000      40.26709096       1.40221140
      34.80000000      90.00000000     360.00000000      40.26729543       1.40221852
      34.90000000      90.00000000     360.00000000      40.26749993       1.40222565
      35.00000000      90.00000000     360.00000000      40.26770448       1.40223277
      35.10000000      90.00000000     360.00000000      40.26790906       1.40223989
      35.20000000      90.00000000     360.00000000      40.26811369       1.40224702
      35.30000000      90.00000000     360.00000000      40.26831835       1.40225415
      35.40000000      90.00000000     360.00000000      40.26852305       1.40226127
      35.50000000      90.00000000     360.00000000      40.26872780       1.40226840
      35.60000000      90.00000000     360.00000000      40.26893258       1.40227553
      35.70000000      90.00000000     360.00000000      40.26913741       1.40228267
      35.80000000      90.00000000     360.00000000      40.26934227       1.40228980
      35.90000000      90.00000000     360.00000000      40.26954717       1.40229694
      36.00000000      90.00000000     360.00000000      40.26975212       1.40230407
      36.10000000      90.00000000     360.00000000      40.26995710       1.40231121
      36.20000000      90.00000000     360.00000000      40.27016212       1.40231835
      36.30000000      90.00000000     360.00000000      40.27036719       1.40232549
      36.40000000      90.00000000     360.00000000      40.27057229       1.40233263
      36.50000000      90.00000000     360.00000000      40.27077743       1.40233978
      36.60000000      90.00000000     360.00000000      40.27098262       1.40234692
      36.70000000      90.00000000     360.00000000      40.27118784       1.40235407
      36.80000000      90.00000000     360.00000000      40.27139310       1.40236122
      36.90000000      90.00000000     360.00000000      40.27159841       1.40236837
      37.00000000      90.00000000     360.00000000      40.27180375       1.40237552
      37.10000000      90.00000000     360.00000000      40.27200914       1.40238267
      37.20000000      90.00000000     360.00000000      40.27221456       1.40238982
      37.30000000      90.00000000     360.00000000      40.27242003       1.40239698
      37.40000000      90.00000000     360.00000000      40.27262553       1.40240413
      37.50000000      90.00000000     360.00000000      40.27283108       1.40241129
      37.60000000      90.00000000     360.00000000      40.27303667       1.40241845
      37.70000000      90.00000000     360.00000000      40.27324229       1.40242561
      37.80000000      90.00000000     360.00000000      40.27344796       1.40243277
      37.90000000      90.00000000     360.00000000      40.27365367       1.40243994
      38.00000000      90.00000000     360.00000000      40.27385942       1.40244710
      38.10000000      90.00000000     360.00000000      40.27406521       1.40245427
      38.20000000      90.00000000     360.00000000      40.27427104       1.40246143
      38.30000000      90.00000000     360.00000000      40.27447690       1.40246860
      38.40000000      90.00000000     360.00000000      40.27468282       1.40247577
      38.50000000      90.00000000     360.00000000      40.27488877       1.40248295
      38.60000000      90.00000000     360.00000000      40.27509476       1.40249012
      38.70000000      90.00000000     360.00000000      40.27530079       1.40249729
      38.80000000      90.00000000     360.00000000      40.27550686       1.40250447
      38.90000000      90.00000000     360.00000000      40.27571298       1.40251165
      39.00000000      90.00000000     360.00000000      40.27591913       1.40251883
      39.10000000      90.00000000     360.00000000      40.27612532       1.40252601
      39.20000000      90.00000000     360.00000000      40.27633156       1.40253319
      39.30000000      90.00000000     360.00000000      40.27653784       1.40254037
      39.40000000      90.00000000     360.00000000      40.27674415       1.40254756
      39.50000000      90.00000000     360.00000000      40.27695051       1.40255474
      39.60000000      90.00000000     360.00000000      40.27715691       1.40256193
      39.70000000      90.00000000     360.00000000      40.27736335       1.40256912
      39.80000000      90.00000000     360.00000000      40.27756983       1.40257631
      39.90000000      90.00000000     360.00000000      40.27777635       1.40258350
      40.00000000      90.00000000     360.00000000      40.27798291       1.40259069
