 # applied field (T), theta (degree), phi (degree), abs [muB/unitcell], abs [T]
       0.00000000       0.00000000       0.00000000      48.33101018       1.68301936
       0.10000000       3.21408570     360.00000000      48.33105014       1.68302075
       0.20000000       6.42812854     360.00000000      48.33116541       1.68302477
       0.30000000       9.64208895     360.00000000      48.33134250       1.68303093
       0.40000000      13.31494602     360.00000000      48.33159067       1.68303957
       0.50000000      17.44660809     360.00000000      48.33187600       1.68304951
       0.60000000      90.00000000     360.00000000      48.31414193       1.68243196
       0.70000000      90.00000000     360.00000000      48.31421054       1.68243435
       0.80000000      90.00000000     360.00000000      48.31427917       1.68243674
       0.90000000      90.00000000     360.00000000      48.31434780       1.68243913
       1.00000000      90.00000000     360.00000000      48.31441645       1.68244152
       1.10000000      90.00000000     360.00000000      48.31448511       1.68244391
       1.20000000      90.00000000     360.00000000      48.31455379       1.68244630
       1.30000000      90.00000000     360.00000000      48.31462248       1.68244869
       1.40000000      90.00000000     360.00000000      48.31469118       1.68245109
       1.50000000      90.00000000     360.00000000      48.31475989       1.68245348
       1.60000000      90.00000000     360.00000000      48.31482861       1.68245587
       1.70000000      90.00000000     360.00000000      48.31489735       1.68245827
       1.80000000      90.00000000     360.00000000      48.31496610       1.68246066
       1.90000000      90.00000000     360.00000000      48.31503486       1.68246306
       2.00000000      90.00000000     360.00000000      48.31510364       1.68246545
       2.10000000      90.00000000     360.00000000      48.31517243       1.68246785
       2.20000000      90.00000000     360.00000000      48.31524123       1.68247024
       2.30000000      90.00000000     360.00000000      48.31531004       1.68247264
       2.40000000      90.00000000     360.00000000      48.31537886       1.68247503
       2.50000000      90.00000000     360.00000000      48.31544770       1.68247743
       2.60000000      90.00000000     360.00000000      48.31551655       1.68247983
       2.70000000      90.00000000     360.00000000      48.31558541       1.68248223
       2.80000000      90.00000000     360.00000000      48.31565429       1.68248463
       2.90000000      90.00000000     360.00000000      48.31572318       1.68248702
       3.00000000      90.00000000     360.00000000      48.31579208       1.68248942
       3.10000000      90.00000000     360.00000000      48.31586099       1.68249182
       3.20000000      90.00000000     360.00000000      48.31592992       1.68249422
       3.30000000      90.00000000     360.00000000      48.31599886       1.68249662
       3.40000000      90.00000000     360.00000000      48.31606781       1.68249903
       3.50000000      90.00000000     360.00000000      48.31613677       1.68250143
       3.60000000      90.00000000     360.00000000      48.31620575       1.68250383
       3.70000000      90.00000000     360.00000000      48.31627474       1.68250623
       3.80000000      90.00000000     360.00000000      48.31634374       1.68250863
       3.90000000      90.00000000     360.00000000      48.31641275       1.68251104
       4.00000000      90.00000000     360.00000000      48.31648178       1.68251344
       4.10000000      90.00000000     360.00000000      48.31655082       1.68251585
       4.20000000      90.00000000     360.00000000      48.31661987       1.68251825
       4.30000000      90.00000000     360.00000000      48.31668894       1.68252065
       4.40000000      90.00000000     360.00000000      48.31675801       1.68252306
       4.50000000      90.00000000     360.00000000      48.31682710       1.68252547
       4.60000000      90.00000000     360.00000000      48.31689621       1.68252787
       4.70000000      90.00000000     360.00000000      48.31696532       1.68253028
       4.80000000      90.00000000     360.00000000      48.31703445       1.68253269
       4.90000000      90.00000000     360.00000000      48.31710359       1.68253509
       5.00000000      90.00000000     360.00000000      48.31717274       1.68253750
       5.10000000      90.00000000     360.00000000      48.31724191       1.68253991
       5.20000000      90.00000000     360.00000000      48.31731109       1.68254232
       5.30000000      90.00000000     360.00000000      48.31738028       1.68254473
       5.40000000      90.00000000     360.00000000      48.31744948       1.68254714
       5.50000000      90.00000000     360.00000000      48.31751870       1.68254955
       5.60000000      90.00000000     360.00000000      48.31758793       1.68255196
       5.70000000      90.00000000     360.00000000      48.31765717       1.68255437
       5.80000000      90.00000000     360.00000000      48.31772642       1.68255678
       5.90000000      90.00000000     360.00000000      48.31779569       1.68255919
       6.00000000      90.00000000     360.00000000      48.31786497       1.68256161
       6.10000000      90.00000000     360.00000000      48.31793426       1.68256402
       6.20000000      90.00000000     360.00000000      48.31800357       1.68256643
       6.30000000      90.00000000     360.00000000      48.31807289       1.68256885
       6.40000000      90.00000000     360.00000000      48.31814222       1.68257126
       6.50000000      90.00000000     360.00000000      48.31821156       1.68257368
       6.60000000      90.00000000     360.00000000      48.31828092       1.68257609
       6.70000000      90.00000000     360.00000000      48.31835029       1.68257851
       6.80000000      90.00000000     360.00000000      48.31841967       1.68258092
       6.90000000      90.00000000     360.00000000      48.31848906       1.68258334
       7.00000000      90.00000000     360.00000000      48.31855847       1.68258576
       7.10000000      90.00000000     360.00000000      48.31862789       1.68258817
       7.20000000      90.00000000     360.00000000      48.31869732       1.68259059
       7.30000000      90.00000000     360.00000000      48.31876677       1.68259301
       7.40000000      90.00000000     360.00000000      48.31883622       1.68259543
       7.50000000      90.00000000     360.00000000      48.31890569       1.68259785
       7.60000000      90.00000000     360.00000000      48.31897518       1.68260027
       7.70000000      90.00000000     360.00000000      48.31904467       1.68260269
       7.80000000      90.00000000     360.00000000      48.31911418       1.68260511
       7.90000000      90.00000000     360.00000000      48.31918370       1.68260753
       8.00000000      90.00000000     360.00000000      48.31925324       1.68260995
       8.10000000      90.00000000     360.00000000      48.31932279       1.68261237
       8.20000000      90.00000000     360.00000000      48.31939235       1.68261479
       8.30000000      90.00000000     360.00000000      48.31946192       1.68261722
       8.40000000      90.00000000     360.00000000      48.31953151       1.68261964
       8.50000000      90.00000000     360.00000000      48.31960110       1.68262206
       8.60000000      90.00000000     360.00000000      48.31967071       1.68262449
       8.70000000      90.00000000     360.00000000      48.31974034       1.68262691
       8.80000000      90.00000000     360.00000000      48.31980998       1.68262934
       8.90000000      90.00000000     360.00000000      48.31987962       1.68263176
       9.00000000      90.00000000     360.00000000      48.31994929       1.68263419
       9.10000000      90.00000000     360.00000000      48.32001896       1.68263662
       9.20000000      90.00000000     360.00000000      48.32008865       1.68263904
       9.30000000      90.00000000     360.00000000      48.32015835       1.68264147
       9.40000000      90.00000000     360.00000000      48.32022806       1.68264390
       9.50000000      90.00000000     360.00000000      48.32029779       1.68264632
       9.60000000      90.00000000     360.00000000      48.32036753       1.68264875
       9.70000000      90.00000000     360.00000000      48.32043728       1.68265118
       9.80000000      90.00000000     360.00000000      48.32050705       1.68265361
       9.90000000      90.00000000     360.00000000      48.32057682       1.68265604
      10.00000000      90.00000000     360.00000000      48.32064661       1.68265847
      10.10000000      90.00000000     360.00000000      48.32071642       1.68266090
      10.20000000      90.00000000     360.00000000      48.32078623       1.68266333
      10.30000000      90.00000000     360.00000000      48.32085606       1.68266577
      10.40000000      90.00000000     360.00000000      48.32092590       1.68266820
      10.50000000      90.00000000     360.00000000      48.32099576       1.68267063
      10.60000000      90.00000000     360.00000000      48.32106563       1.68267306
      10.70000000      90.00000000     360.00000000      48.32113551       1.68267550
      10.80000000      90.00000000     360.00000000      48.32120540       1.68267793
      10.90000000      90.00000000     360.00000000      48.32127531       1.68268036
      11.00000000      90.00000000     360.00000000      48.32134523       1.68268280
      11.10000000      90.00000000     360.00000000      48.32141516       1.68268523
      11.20000000      90.00000000     360.00000000      48.32148510       1.68268767
      11.30000000      90.00000000     360.00000000      48.32155506       1.68269011
      11.40000000      90.00000000     360.00000000      48.32162503       1.68269254
      11.50000000      90.00000000     360.00000000      48.32169501       1.68269498
      11.60000000      90.00000000     360.00000000      48.32176501       1.68269742
      11.70000000      90.00000000     360.00000000      48.32183502       1.68269986
      11.80000000      90.00000000     360.00000000      48.32190504       1.68270229
      11.90000000      90.00000000     360.00000000      48.32197508       1.68270473
      12.00000000      90.00000000     360.00000000      48.32204512       1.68270717
      12.10000000      90.00000000     360.00000000      48.32211519       1.68270961
      12.20000000      90.00000000     360.00000000      48.32218526       1.68271205
      12.30000000      90.00000000     360.00000000      48.32225535       1.68271449
      12.40000000      90.00000000     360.00000000      48.32232545       1.68271693
      12.50000000      90.00000000     360.00000000      48.32239556       1.68271938
      12.60000000      90.00000000     360.00000000      48.32246568       1.68272182
      12.70000000      90.00000000     360.00000000      48.32253582       1.68272426
      12.80000000      90.00000000     360.00000000      48.32260597       1.68272670
      12.90000000      90.00000000     360.00000000      48.32267614       1.68272915
      13.00000000      90.00000000     360.00000000      48.32274631       1.68273159
      13.10000000      90.00000000     360.00000000      48.32281650       1.68273403
      13.20000000      90.00000000     360.00000000      48.32288671       1.68273648
      13.30000000      90.00000000     360.00000000      48.32295692       1.68273892
      13.40000000      90.00000000     360.00000000      48.32302715       1.68274137
      13.50000000      90.00000000     360.00000000      48.32309739       1.68274381
      13.60000000      90.00000000     360.00000000      48.32316765       1.68274626
      13.70000000      90.00000000     360.00000000      48.32323792       1.68274871
      13.80000000      90.00000000     360.00000000      48.32330820       1.68275116
      13.90000000      90.00000000     360.00000000      48.32337849       1.68275360
      14.00000000      90.00000000     360.00000000      48.32344880       1.68275605
      14.10000000      90.00000000     360.00000000      48.32351912       1.68275850
      14.20000000      90.00000000     360.00000000      48.32358945       1.68276095
      14.30000000      90.00000000     360.00000000      48.32365980       1.68276340
      14.40000000      90.00000000     360.00000000      48.32373016       1.68276585
      14.50000000      90.00000000     360.00000000      48.32380053       1.68276830
      14.60000000      90.00000000     360.00000000      48.32387091       1.68277075
      14.70000000      90.00000000     360.00000000      48.32394131       1.68277320
      14.80000000      90.00000000     360.00000000      48.32401172       1.68277565
      14.90000000      90.00000000     360.00000000      48.32408214       1.68277811
      15.00000000      90.00000000     360.00000000      48.32415258       1.68278056
      15.10000000      90.00000000     360.00000000      48.32422303       1.68278301
      15.20000000      90.00000000     360.00000000      48.32429349       1.68278547
      15.30000000      90.00000000     360.00000000      48.32436397       1.68278792
      15.40000000      90.00000000     360.00000000      48.32443446       1.68279038
      15.50000000      90.00000000     360.00000000      48.32450496       1.68279283
      15.60000000      90.00000000     360.00000000      48.32457548       1.68279529
      15.70000000      90.00000000     360.00000000      48.32464600       1.68279774
      15.80000000      90.00000000     360.00000000      48.32471654       1.68280020
      15.90000000      90.00000000     360.00000000      48.32478710       1.68280266
      16.00000000      90.00000000     360.00000000      48.32485767       1.68280511
      16.10000000      90.00000000     360.00000000      48.32492825       1.68280757
      16.20000000      90.00000000     360.00000000      48.32499884       1.68281003
      16.30000000      90.00000000     360.00000000      48.32506945       1.68281249
      16.40000000      90.00000000     360.00000000      48.32514007       1.68281495
      16.50000000      90.00000000     360.00000000      48.32521070       1.68281741
      16.60000000      90.00000000     360.00000000      48.32528134       1.68281987
      16.70000000      90.00000000     360.00000000      48.32535200       1.68282233
      16.80000000      90.00000000     360.00000000      48.32542267       1.68282479
      16.90000000      90.00000000     360.00000000      48.32549336       1.68282725
      17.00000000      90.00000000     360.00000000      48.32556406       1.68282971
      17.10000000      90.00000000     360.00000000      48.32563477       1.68283217
      17.20000000      90.00000000     360.00000000      48.32570549       1.68283464
      17.30000000      90.00000000     360.00000000      48.32577623       1.68283710
      17.40000000      90.00000000     360.00000000      48.32584698       1.68283956
      17.50000000      90.00000000     360.00000000      48.32591774       1.68284203
      17.60000000      90.00000000     360.00000000      48.32598852       1.68284449
      17.70000000      90.00000000     360.00000000      48.32605931       1.68284696
      17.80000000      90.00000000     360.00000000      48.32613011       1.68284942
      17.90000000      90.00000000     360.00000000      48.32620093       1.68285189
      18.00000000      90.00000000     360.00000000      48.32627176       1.68285435
      18.10000000      90.00000000     360.00000000      48.32634260       1.68285682
      18.20000000      90.00000000     360.00000000      48.32641345       1.68285929
      18.30000000      90.00000000     360.00000000      48.32648432       1.68286176
      18.40000000      90.00000000     360.00000000      48.32655520       1.68286423
      18.50000000      90.00000000     360.00000000      48.32662610       1.68286669
      18.60000000      90.00000000     360.00000000      48.32669700       1.68286916
      18.70000000      90.00000000     360.00000000      48.32676793       1.68287163
      18.80000000      90.00000000     360.00000000      48.32683886       1.68287410
      18.90000000      90.00000000     360.00000000      48.32690981       1.68287657
      19.00000000      90.00000000     360.00000000      48.32698077       1.68287904
      19.10000000      90.00000000     360.00000000      48.32705174       1.68288152
      19.20000000      90.00000000     360.00000000      48.32712273       1.68288399
      19.30000000      90.00000000     360.00000000      48.32719373       1.68288646
      19.40000000      90.00000000     360.00000000      48.32726474       1.68288893
      19.50000000      90.00000000     360.00000000      48.32733577       1.68289141
      19.60000000      90.00000000     360.00000000      48.32740681       1.68289388
      19.70000000      90.00000000     360.00000000      48.32747786       1.68289635
      19.80000000      90.00000000     360.00000000      48.32754893       1.68289883
      19.90000000      90.00000000     360.00000000      48.32762000       1.68290130
      20.00000000      90.00000000     360.00000000      48.32769110       1.68290378
      20.10000000      90.00000000     360.00000000      48.32776220       1.68290626
      20.20000000      90.00000000     360.00000000      48.32783332       1.68290873
      20.30000000      90.00000000     360.00000000      48.32790445       1.68291121
      20.40000000      90.00000000     360.00000000      48.32797560       1.68291369
      20.50000000      90.00000000     360.00000000      48.32804676       1.68291617
      20.60000000      90.00000000     360.00000000      48.32811793       1.68291864
      20.70000000      90.00000000     360.00000000      48.32818911       1.68292112
      20.80000000      90.00000000     360.00000000      48.32826031       1.68292360
      20.90000000      90.00000000     360.00000000      48.32833152       1.68292608
      21.00000000      90.00000000     360.00000000      48.32840275       1.68292856
      21.10000000      90.00000000     360.00000000      48.32847398       1.68293104
      21.20000000      90.00000000     360.00000000      48.32854523       1.68293352
      21.30000000      90.00000000     360.00000000      48.32861650       1.68293601
      21.40000000      90.00000000     360.00000000      48.32868778       1.68293849
      21.50000000      90.00000000     360.00000000      48.32875907       1.68294097
      21.60000000      90.00000000     360.00000000      48.32883037       1.68294345
      21.70000000      90.00000000     360.00000000      48.32890169       1.68294594
      21.80000000      90.00000000     360.00000000      48.32897302       1.68294842
      21.90000000      90.00000000     360.00000000      48.32904436       1.68295090
      22.00000000      90.00000000     360.00000000      48.32911572       1.68295339
      22.10000000      90.00000000     360.00000000      48.32918709       1.68295587
      22.20000000      90.00000000     360.00000000      48.32925847       1.68295836
      22.30000000      90.00000000     360.00000000      48.32932987       1.68296085
      22.40000000      90.00000000     360.00000000      48.32940128       1.68296333
      22.50000000      90.00000000     360.00000000      48.32947270       1.68296582
      22.60000000      90.00000000     360.00000000      48.32954414       1.68296831
      22.70000000      90.00000000     360.00000000      48.32961559       1.68297080
      22.80000000      90.00000000     360.00000000      48.32968705       1.68297329
      22.90000000      90.00000000     360.00000000      48.32975853       1.68297577
      23.00000000      90.00000000     360.00000000      48.32983002       1.68297826
      23.10000000      90.00000000     360.00000000      48.32990152       1.68298075
      23.20000000      90.00000000     360.00000000      48.32997304       1.68298324
      23.30000000      90.00000000     360.00000000      48.33004457       1.68298573
      23.40000000      90.00000000     360.00000000      48.33011611       1.68298823
      23.50000000      90.00000000     360.00000000      48.33018767       1.68299072
      23.60000000      90.00000000     360.00000000      48.33025924       1.68299321
      23.70000000      90.00000000     360.00000000      48.33033082       1.68299570
      23.80000000      90.00000000     360.00000000      48.33040242       1.68299820
      23.90000000      90.00000000     360.00000000      48.33047403       1.68300069
      24.00000000      90.00000000     360.00000000      48.33054565       1.68300318
      24.10000000      90.00000000     360.00000000      48.33061729       1.68300568
      24.20000000      90.00000000     360.00000000      48.33068894       1.68300817
      24.30000000      90.00000000     360.00000000      48.33076060       1.68301067
      24.40000000      90.00000000     360.00000000      48.33083228       1.68301316
      24.50000000      90.00000000     360.00000000      48.33090397       1.68301566
      24.60000000      90.00000000     360.00000000      48.33097567       1.68301816
      24.70000000      90.00000000     360.00000000      48.33104739       1.68302066
      24.80000000      90.00000000     360.00000000      48.33111912       1.68302315
      24.90000000      90.00000000     360.00000000      48.33119086       1.68302565
      25.00000000      90.00000000     360.00000000      48.33126262       1.68302815
      25.10000000      90.00000000     360.00000000      48.33133439       1.68303065
      25.20000000      90.00000000     360.00000000      48.33140618       1.68303315
      25.30000000      90.00000000     360.00000000      48.33147797       1.68303565
      25.40000000      90.00000000     360.00000000      48.33154978       1.68303815
      25.50000000      90.00000000     360.00000000      48.33162161       1.68304065
      25.60000000      90.00000000     360.00000000      48.33169344       1.68304315
      25.70000000      90.00000000     360.00000000      48.33176530       1.68304566
      25.80000000      90.00000000     360.00000000      48.33183716       1.68304816
      25.90000000      90.00000000     360.00000000      48.33190904       1.68305066
      26.00000000      90.00000000     360.00000000      48.33198093       1.68305316
      26.10000000      90.00000000     360.00000000      48.33205283       1.68305567
      26.20000000      90.00000000     360.00000000      48.33212475       1.68305817
      26.30000000      90.00000000     360.00000000      48.33219668       1.68306068
      26.40000000      90.00000000     360.00000000      48.33226863       1.68306318
      26.50000000      90.00000000     360.00000000      48.33234059       1.68306569
      26.60000000      90.00000000     360.00000000      48.33241256       1.68306819
      26.70000000      90.00000000     360.00000000      48.33248454       1.68307070
      26.80000000      90.00000000     360.00000000      48.33255654       1.68307321
      26.90000000      90.00000000     360.00000000      48.33262855       1.68307572
      27.00000000      90.00000000     360.00000000      48.33270058       1.68307822
      27.10000000      90.00000000     360.00000000      48.33277262       1.68308073
      27.20000000      90.00000000     360.00000000      48.33284467       1.68308324
      27.30000000      90.00000000     360.00000000      48.33291674       1.68308575
      27.40000000      90.00000000     360.00000000      48.33298882       1.68308826
      27.50000000      90.00000000     360.00000000      48.33306091       1.68309077
      27.60000000      90.00000000     360.00000000      48.33313302       1.68309328
      27.70000000      90.00000000     360.00000000      48.33320514       1.68309579
      27.80000000      90.00000000     360.00000000      48.33327727       1.68309831
      27.90000000      90.00000000     360.00000000      48.33334942       1.68310082
      28.00000000      90.00000000     360.00000000      48.33342158       1.68310333
      28.10000000      90.00000000     360.00000000      48.33349375       1.68310584
      28.20000000      90.00000000     360.00000000      48.33356594       1.68310836
      28.30000000      90.00000000     360.00000000      48.33363814       1.68311087
      28.40000000      90.00000000     360.00000000      48.33371035       1.68311339
      28.50000000      90.00000000     360.00000000      48.33378258       1.68311590
      28.60000000      90.00000000     360.00000000      48.33385482       1.68311842
      28.70000000      90.00000000     360.00000000      48.33392708       1.68312093
      28.80000000      90.00000000     360.00000000      48.33399935       1.68312345
      28.90000000      90.00000000     360.00000000      48.33407163       1.68312597
      29.00000000      90.00000000     360.00000000      48.33414392       1.68312849
      29.10000000      90.00000000     360.00000000      48.33421623       1.68313100
      29.20000000      90.00000000     360.00000000      48.33428856       1.68313352
      29.30000000      90.00000000     360.00000000      48.33436089       1.68313604
      29.40000000      90.00000000     360.00000000      48.33443324       1.68313856
      29.50000000      90.00000000     360.00000000      48.33450561       1.68314108
      29.60000000      90.00000000     360.00000000      48.33457798       1.68314360
      29.70000000      90.00000000     360.00000000      48.33465037       1.68314612
      29.80000000      90.00000000     360.00000000      48.33472278       1.68314864
      29.90000000      90.00000000     360.00000000      48.33479520       1.68315116
      30.00000000      90.00000000     360.00000000      48.33486763       1.68315369
      30.10000000      90.00000000     360.00000000      48.33494007       1.68315621
      30.20000000      90.00000000     360.00000000      48.33501253       1.68315873
      30.30000000      90.00000000     360.00000000      48.33508500       1.68316126
      30.40000000      90.00000000     360.00000000      48.33515749       1.68316378
      30.50000000      90.00000000     360.00000000      48.33522999       1.68316631
      30.60000000      90.00000000     360.00000000      48.33530250       1.68316883
      30.70000000      90.00000000     360.00000000      48.33537503       1.68317136
      30.80000000      90.00000000     360.00000000      48.33544757       1.68317388
      30.90000000      90.00000000     360.00000000      48.33552012       1.68317641
      31.00000000      90.00000000     360.00000000      48.33559269       1.68317894
      31.10000000      90.00000000     360.00000000      48.33566527       1.68318146
      31.20000000      90.00000000     360.00000000      48.33573786       1.68318399
      31.30000000      90.00000000     360.00000000      48.33581047       1.68318652
      31.40000000      90.00000000     360.00000000      48.33588309       1.68318905
      31.50000000      90.00000000     360.00000000      48.33595573       1.68319158
      31.60000000      90.00000000     360.00000000      48.33602838       1.68319411
      31.70000000      90.00000000     360.00000000      48.33610104       1.68319664
      31.80000000      90.00000000     360.00000000      48.33617372       1.68319917
      31.90000000      90.00000000     360.00000000      48.33624641       1.68320170
      32.00000000      90.00000000     360.00000000      48.33631911       1.68320423
      32.10000000      90.00000000     360.00000000      48.33639183       1.68320676
      32.20000000      90.00000000     360.00000000      48.33646456       1.68320930
      32.30000000      90.00000000     360.00000000      48.33653730       1.68321183
      32.40000000      90.00000000     360.00000000      48.33661006       1.68321436
      32.50000000      90.00000000     360.00000000      48.33668283       1.68321690
      32.60000000      90.00000000     360.00000000      48.33675562       1.68321943
      32.70000000      90.00000000     360.00000000      48.33682842       1.68322197
      32.80000000      90.00000000     360.00000000      48.33690123       1.68322450
      32.90000000      90.00000000     360.00000000      48.33697406       1.68322704
      33.00000000      90.00000000     360.00000000      48.33704690       1.68322958
      33.10000000      90.00000000     360.00000000      48.33711975       1.68323211
      33.20000000      90.00000000     360.00000000      48.33719262       1.68323465
      33.30000000      90.00000000     360.00000000      48.33726550       1.68323719
      33.40000000      90.00000000     360.00000000      48.33733840       1.68323973
      33.50000000      90.00000000     360.00000000      48.33741131       1.68324226
      33.60000000      90.00000000     360.00000000      48.33748423       1.68324480
      33.70000000      90.00000000     360.00000000      48.33755717       1.68324734
      33.80000000      90.00000000     360.00000000      48.33763012       1.68324988
      33.90000000      90.00000000     360.00000000      48.33770308       1.68325243
      34.00000000      90.00000000     360.00000000      48.33777606       1.68325497
      34.10000000      90.00000000     360.00000000      48.33784905       1.68325751
      34.20000000      90.00000000     360.00000000      48.33792206       1.68326005
      34.30000000      90.00000000     360.00000000      48.33799508       1.68326259
      34.40000000      90.00000000     360.00000000      48.33806811       1.68326514
      34.50000000      90.00000000     360.00000000      48.33814115       1.68326768
      34.60000000      90.00000000     360.00000000      48.33821422       1.68327022
      34.70000000      90.00000000     360.00000000      48.33828729       1.68327277
      34.80000000      90.00000000     360.00000000      48.33836038       1.68327531
      34.90000000      90.00000000     360.00000000      48.33843348       1.68327786
      35.00000000      90.00000000     360.00000000      48.33850659       1.68328041
      35.10000000      90.00000000     360.00000000      48.33857972       1.68328295
      35.20000000      90.00000000     360.00000000      48.33865287       1.68328550
      35.30000000      90.00000000     360.00000000      48.33872602       1.68328805
      35.40000000      90.00000000     360.00000000      48.33879919       1.68329059
      35.50000000      90.00000000     360.00000000      48.33887238       1.68329314
      35.60000000      90.00000000     360.00000000      48.33894558       1.68329569
      35.70000000      90.00000000     360.00000000      48.33901879       1.68329824
      35.80000000      90.00000000     360.00000000      48.33909201       1.68330079
      35.90000000      90.00000000     360.00000000      48.33916525       1.68330334
      36.00000000      90.00000000     360.00000000      48.33923851       1.68330589
      36.10000000      90.00000000     360.00000000      48.33931177       1.68330844
      36.20000000      90.00000000     360.00000000      48.33938505       1.68331100
      36.30000000      90.00000000     360.00000000      48.33945835       1.68331355
      36.40000000      90.00000000     360.00000000      48.33953166       1.68331610
      36.50000000      90.00000000     360.00000000      48.33960498       1.68331865
      36.60000000      90.00000000     360.00000000      48.33967832       1.68332121
      36.70000000      90.00000000     360.00000000      48.33975167       1.68332376
      36.80000000      90.00000000     360.00000000      48.33982503       1.68332632
      36.90000000      90.00000000     360.00000000      48.33989841       1.68332887
      37.00000000      90.00000000     360.00000000      48.33997180       1.68333143
      37.10000000      90.00000000     360.00000000      48.34004520       1.68333398
      37.20000000      90.00000000     360.00000000      48.34011862       1.68333654
      37.30000000      90.00000000     360.00000000      48.34019206       1.68333910
      37.40000000      90.00000000     360.00000000      48.34026550       1.68334166
      37.50000000      90.00000000     360.00000000      48.34033897       1.68334421
      37.60000000      90.00000000     360.00000000      48.34041244       1.68334677
      37.70000000      90.00000000     360.00000000      48.34048593       1.68334933
      37.80000000      90.00000000     360.00000000      48.34055943       1.68335189
      37.90000000      90.00000000     360.00000000      48.34063295       1.68335445
      38.00000000      90.00000000     360.00000000      48.34070648       1.68335701
      38.10000000      90.00000000     360.00000000      48.34078002       1.68335957
      38.20000000      90.00000000     360.00000000      48.34085358       1.68336213
      38.30000000      90.00000000     360.00000000      48.34092715       1.68336470
      38.40000000      90.00000000     360.00000000      48.34100074       1.68336726
      38.50000000      90.00000000     360.00000000      48.34107434       1.68336982
      38.60000000      90.00000000     360.00000000      48.34114795       1.68337239
      38.70000000      90.00000000     360.00000000      48.34122158       1.68337495
      38.80000000      90.00000000     360.00000000      48.34129522       1.68337751
      38.90000000      90.00000000     360.00000000      48.34136888       1.68338008
      39.00000000      90.00000000     360.00000000      48.34144255       1.68338264
      39.10000000      90.00000000     360.00000000      48.34151623       1.68338521
      39.20000000      90.00000000     360.00000000      48.34158993       1.68338778
      39.30000000      90.00000000     360.00000000      48.34166364       1.68339034
      39.40000000      90.00000000     360.00000000      48.34173737       1.68339291
      39.50000000      90.00000000     360.00000000      48.34181110       1.68339548
      39.60000000      90.00000000     360.00000000      48.34188486       1.68339805
      39.70000000      90.00000000     360.00000000      48.34195863       1.68340062
      39.80000000      90.00000000     360.00000000      48.34203241       1.68340318
      39.90000000      90.00000000     360.00000000      48.34210620       1.68340575
      40.00000000      90.00000000     360.00000000      48.34218001       1.68340832
