 # applied field (T), theta (degree), phi (degree), abs for RE 3-4
     0.00000     0.00000     0.00000     4.07109     0.00000     0.00000     4.07109
     0.10000     0.49847   360.00000     4.07108     0.47893   360.00000     4.07106
     0.20000     0.94744   360.00000     4.07104     0.91030   360.00000     4.07098
     0.30000     1.44602   360.00000     4.07097     1.38935   360.00000     4.07085
     0.40000     1.94470   360.00000     4.07087     1.86851   360.00000     4.07065
     0.50000     2.39395   360.00000     4.07076     2.30021   360.00000     4.07042
     0.60000     2.89293   360.00000     4.07062     2.77973   360.00000     4.07012
     0.70000     3.39212   360.00000     4.07044     3.25949   360.00000     4.06975
     0.80000     3.84192   360.00000     4.07026     3.69184   360.00000     4.06937
     0.90000     4.34161   360.00000     4.07003     4.17219   360.00000     4.06890
     1.00000     4.84162   360.00000     4.06977     4.65291   360.00000     4.06837
     1.10000     5.29225   360.00000     4.06952     5.08621   360.00000     4.06785
     1.20000     5.79296   360.00000     4.06921     5.56775   360.00000     4.06721
     1.30000     6.29408   360.00000     4.06887     6.04977   360.00000     4.06651
     1.40000     6.79566   360.00000     4.06851     6.53232   360.00000     4.06576
     1.50000     7.29773   360.00000     4.06813     7.01545   360.00000     4.06496
     1.60000     7.75035   360.00000     4.06776     7.45109   360.00000     4.06419
     1.70000     8.25344   360.00000     4.06732     7.93542   360.00000     4.06328
     1.80000     8.75711   360.00000     4.06686     8.42043   360.00000     4.06231
     1.90000     9.26141   360.00000     4.06638     8.90617   360.00000     4.06130
     2.00000     9.76635   360.00000     4.06587     9.39268   360.00000     4.06022
     2.10000    10.27198   360.00000     4.06534     9.88000   360.00000     4.05910
     2.20000    10.77833   360.00000     4.06479    10.36816   360.00000     4.05792
     2.30000    11.28542   360.00000     4.06421    10.85720   360.00000     4.05669
     2.40000    11.79329   360.00000     4.06361    11.34717   360.00000     4.05541
     2.50000    12.30198   360.00000     4.06299    11.83810   360.00000     4.05408
     2.60000    12.81150   360.00000     4.06235    12.33002   360.00000     4.05270
     2.70000    13.37265   360.00000     4.06161    12.87203   360.00000     4.05112
     2.80000    13.88403   360.00000     4.06093    13.36616   360.00000     4.04964
     2.90000    14.39633   360.00000     4.06023    13.86141   360.00000     4.04811
     3.00000    14.90959   360.00000     4.05950    14.35779   360.00000     4.04653
     3.10000    15.47499   360.00000     4.05868    14.90487   360.00000     4.04473
     3.20000    15.99034   360.00000     4.05792    15.40377   360.00000     4.04306
     3.30000    16.55810   360.00000     4.05706    15.95369   360.00000     4.04116
     3.40000    17.07565   360.00000     4.05627    16.45524   360.00000     4.03939
     3.50000    17.64589   360.00000     4.05537    17.00816   360.00000     4.03739
     3.60000    18.21748   360.00000     4.05445    17.56271   360.00000     4.03535
     3.70000    18.79045   360.00000     4.05352    18.11894   360.00000     4.03325
     3.80000    19.31282   360.00000     4.05266    18.62636   360.00000     4.03130
     3.90000    19.88849   360.00000     4.05169    19.18589   360.00000     4.02911
     4.00000    20.46561   360.00000     4.05071    19.74720   360.00000     4.02687
     4.10000    21.04420   360.00000     4.04971    20.31033   360.00000     4.02459
     4.20000    21.67683   360.00000     4.04860    20.92649   360.00000     4.02205
     4.30000    22.25860   360.00000     4.04757    21.49354   360.00000     4.01968
     4.40000    22.84191   360.00000     4.04653    22.06251   360.00000     4.01727
     4.50000    23.47976   360.00000     4.04538    22.68517   360.00000     4.01459
     4.60000    24.06637   360.00000     4.04431    23.25826   360.00000     4.01210
     4.70000    24.70787   360.00000     4.04313    23.88548   360.00000     4.00934
     4.80000    25.35130   360.00000     4.04193    24.51514   360.00000     4.00654
     4.90000    25.99668   360.00000     4.04072    25.14727   360.00000     4.00370
     5.00000    26.64403   360.00000     4.03950    25.78190   360.00000     4.00082
     5.10000    27.29338   360.00000     4.03827    26.41906   360.00000     3.99791
     5.20000    27.94472   360.00000     4.03703    27.05878   360.00000     3.99496
     5.30000    28.65237   360.00000     4.03566    27.75448   360.00000     3.99174
     5.40000    29.30793   360.00000     4.03440    28.39961   360.00000     3.98873
     5.50000    30.02017   360.00000     4.03301    29.10123   360.00000     3.98544
     5.60000    30.73481   360.00000     4.03160    29.80596   360.00000     3.98212
     5.70000    31.45186   360.00000     4.03019    30.51383   360.00000     3.97878
     5.80000    32.22655   360.00000     4.02865    31.27946   360.00000     3.97515
     5.90000    32.94863   360.00000     4.02721    31.99390   360.00000     3.97177
     6.00000    33.72875   360.00000     4.02564    32.76664   360.00000     3.96810
     6.10000    34.51168   360.00000     4.02406    33.54309   360.00000     3.96441
     6.20000    35.29742   360.00000     4.02246    34.32327   360.00000     3.96072
     6.30000    36.08598   360.00000     4.02084    35.10716   360.00000     3.95701
     6.40000    36.93377   360.00000     4.01909    35.95098   360.00000     3.95303
     6.50000    37.78477   360.00000     4.01731    36.79908   360.00000     3.94905
     6.60000    38.63898   360.00000     4.01552    37.65144   360.00000     3.94507
     6.70000    39.55346   360.00000     4.01357    38.56512   360.00000     3.94083
     6.80000    40.47155   360.00000     4.01161    39.48363   360.00000     3.93660
     6.90000    41.39322   360.00000     4.00961    40.40693   360.00000     3.93239
     7.00000    42.37623   360.00000     4.00746    41.39297   360.00000     3.92794
     7.10000    43.36323   360.00000     4.00527    42.38434   360.00000     3.92352
     7.20000    44.41244   360.00000     4.00291    43.43960   360.00000     3.91887
     7.30000    45.46602   360.00000     4.00051    44.50070   360.00000     3.91428
     7.40000    46.52393   360.00000     3.99808    45.56754   360.00000     3.90973
     7.50000    47.70413   360.00000     3.99531    46.75927   360.00000     3.90475
     7.60000    48.83025   360.00000     3.99265    47.89789   360.00000     3.90009
     7.70000    50.08003   360.00000     3.98964    49.16314   360.00000     3.89503
     7.80000    51.33533   360.00000     3.98658    50.43561   360.00000     3.89008
     7.90000    52.71618   360.00000     3.98316    51.83710   360.00000     3.88478
     8.00000    54.10337   360.00000     3.97969    53.24675   360.00000     3.87962
     8.10000    55.55735   360.00000     3.97601    54.72599   360.00000     3.87441
     8.20000    57.13966   360.00000     3.97198    56.33761   360.00000     3.86896
     8.30000    58.79054   360.00000     3.96775    58.02091   360.00000     3.86354
     8.40000    60.57204   360.00000     3.96319    59.83926   360.00000     3.85799
     8.50000    62.48551   360.00000     3.95832    61.79422   360.00000     3.85238
     8.60000    64.59433   360.00000     3.95304    63.95072   360.00000     3.84664
     8.70000    66.96297   360.00000     3.94727    66.37496   360.00000     3.84074
     8.80000    69.59417   360.00000     3.94117    69.06994   360.00000     3.83487
     8.90000    72.67950   360.00000     3.93456    72.23210   360.00000     3.82891
     9.00000    76.60384   360.00000     3.92729    76.25630   360.00000     3.82276
     9.10000    82.33146   360.00000     3.91953    82.13193   360.00000     3.81663
     9.20000    90.00000   360.00000     3.91563    90.00000   360.00000     3.81372
     9.30000    90.00000   360.00000     3.91572    90.00000   360.00000     3.81382
     9.40000    90.00000   360.00000     3.91581    90.00000   360.00000     3.81393
     9.50000    90.00000   360.00000     3.91591    90.00000   360.00000     3.81404
     9.60000    90.00000   360.00000     3.91600    90.00000   360.00000     3.81414
     9.70000    90.00000   360.00000     3.91610    90.00000   360.00000     3.81425
     9.80000    90.00000   360.00000     3.91619    90.00000   360.00000     3.81435
     9.90000    90.00000   360.00000     3.91628    90.00000   360.00000     3.81446
    10.00000    90.00000   360.00000     3.91638    90.00000   360.00000     3.81456
    10.10000    90.00000   360.00000     3.91647    90.00000   360.00000     3.81467
    10.20000    90.00000   360.00000     3.91657    90.00000   360.00000     3.81478
    10.30000    90.00000   360.00000     3.91666    90.00000   360.00000     3.81488
    10.40000    90.00000   360.00000     3.91675    90.00000   360.00000     3.81499
    10.50000    90.00000   360.00000     3.91685    90.00000   360.00000     3.81509
    10.60000    90.00000   360.00000     3.91694    90.00000   360.00000     3.81520
    10.70000    90.00000   360.00000     3.91704    90.00000   360.00000     3.81530
    10.80000    90.00000   360.00000     3.91713    90.00000   360.00000     3.81541
    10.90000    90.00000   360.00000     3.91722    90.00000   360.00000     3.81551
    11.00000    90.00000   360.00000     3.91732    90.00000   360.00000     3.81562
    11.10000    90.00000   360.00000     3.91741    90.00000   360.00000     3.81572
    11.20000    90.00000   360.00000     3.91750    90.00000   360.00000     3.81583
    11.30000    90.00000   360.00000     3.91760    90.00000   360.00000     3.81593
    11.40000    90.00000   360.00000     3.91769    90.00000   360.00000     3.81604
    11.50000    90.00000   360.00000     3.91778    90.00000   360.00000     3.81614
    11.60000    90.00000   360.00000     3.91788    90.00000   360.00000     3.81625
    11.70000    90.00000   360.00000     3.91797    90.00000   360.00000     3.81635
    11.80000    90.00000   360.00000     3.91806    90.00000   360.00000     3.81646
    11.90000    90.00000   360.00000     3.91816    90.00000   360.00000     3.81656
    12.00000    90.00000   360.00000     3.91825    90.00000   360.00000     3.81667
    12.10000    90.00000   360.00000     3.91834    90.00000   360.00000     3.81677
    12.20000    90.00000   360.00000     3.91844    90.00000   360.00000     3.81688
    12.30000    90.00000   360.00000     3.91853    90.00000   360.00000     3.81698
    12.40000    90.00000   360.00000     3.91862    90.00000   360.00000     3.81709
    12.50000    90.00000   360.00000     3.91872    90.00000   360.00000     3.81719
    12.60000    90.00000   360.00000     3.91881    90.00000   360.00000     3.81730
    12.70000    90.00000   360.00000     3.91890    90.00000   360.00000     3.81740
    12.80000    90.00000   360.00000     3.91900    90.00000   360.00000     3.81751
    12.90000    90.00000   360.00000     3.91909    90.00000   360.00000     3.81761
    13.00000    90.00000   360.00000     3.91918    90.00000   360.00000     3.81772
    13.10000    90.00000   360.00000     3.91928    90.00000   360.00000     3.81782
    13.20000    90.00000   360.00000     3.91937    90.00000   360.00000     3.81793
    13.30000    90.00000   360.00000     3.91946    90.00000   360.00000     3.81803
    13.40000    90.00000   360.00000     3.91955    90.00000   360.00000     3.81814
    13.50000    90.00000   360.00000     3.91965    90.00000   360.00000     3.81824
    13.60000    90.00000   360.00000     3.91974    90.00000   360.00000     3.81834
    13.70000    90.00000   360.00000     3.91983    90.00000   360.00000     3.81845
    13.80000    90.00000   360.00000     3.91993    90.00000   360.00000     3.81855
    13.90000    90.00000   360.00000     3.92002    90.00000   360.00000     3.81866
    14.00000    90.00000   360.00000     3.92011    90.00000   360.00000     3.81876
    14.10000    90.00000   360.00000     3.92020    90.00000   360.00000     3.81887
    14.20000    90.00000   360.00000     3.92030    90.00000   360.00000     3.81897
    14.30000    90.00000   360.00000     3.92039    90.00000   360.00000     3.81907
    14.40000    90.00000   360.00000     3.92048    90.00000   360.00000     3.81918
    14.50000    90.00000   360.00000     3.92057    90.00000   360.00000     3.81928
    14.60000    90.00000   360.00000     3.92067    90.00000   360.00000     3.81939
    14.70000    90.00000   360.00000     3.92076    90.00000   360.00000     3.81949
    14.80000    90.00000   360.00000     3.92085    90.00000   360.00000     3.81959
    14.90000    90.00000   360.00000     3.92094    90.00000   360.00000     3.81970
    15.00000    90.00000   360.00000     3.92104    90.00000   360.00000     3.81980
    15.10000    90.00000   360.00000     3.92113    90.00000   360.00000     3.81991
    15.20000    90.00000   360.00000     3.92122    90.00000   360.00000     3.82001
    15.30000    90.00000   360.00000     3.92131    90.00000   360.00000     3.82011
    15.40000    90.00000   360.00000     3.92141    90.00000   360.00000     3.82022
    15.50000    90.00000   360.00000     3.92150    90.00000   360.00000     3.82032
    15.60000    90.00000   360.00000     3.92159    90.00000   360.00000     3.82043
    15.70000    90.00000   360.00000     3.92168    90.00000   360.00000     3.82053
    15.80000    90.00000   360.00000     3.92178    90.00000   360.00000     3.82063
    15.90000    90.00000   360.00000     3.92187    90.00000   360.00000     3.82074
    16.00000    90.00000   360.00000     3.92196    90.00000   360.00000     3.82084
    16.10000    90.00000   360.00000     3.92205    90.00000   360.00000     3.82094
    16.20000    90.00000   360.00000     3.92214    90.00000   360.00000     3.82105
    16.30000    90.00000   360.00000     3.92224    90.00000   360.00000     3.82115
    16.40000    90.00000   360.00000     3.92233    90.00000   360.00000     3.82125
    16.50000    90.00000   360.00000     3.92242    90.00000   360.00000     3.82136
    16.60000    90.00000   360.00000     3.92251    90.00000   360.00000     3.82146
    16.70000    90.00000   360.00000     3.92260    90.00000   360.00000     3.82156
    16.80000    90.00000   360.00000     3.92270    90.00000   360.00000     3.82167
    16.90000    90.00000   360.00000     3.92279    90.00000   360.00000     3.82177
    17.00000    90.00000   360.00000     3.92288    90.00000   360.00000     3.82187
    17.10000    90.00000   360.00000     3.92297    90.00000   360.00000     3.82198
    17.20000    90.00000   360.00000     3.92306    90.00000   360.00000     3.82208
    17.30000    90.00000   360.00000     3.92315    90.00000   360.00000     3.82218
    17.40000    90.00000   360.00000     3.92325    90.00000   360.00000     3.82229
    17.50000    90.00000   360.00000     3.92334    90.00000   360.00000     3.82239
    17.60000    90.00000   360.00000     3.92343    90.00000   360.00000     3.82249
    17.70000    90.00000   360.00000     3.92352    90.00000   360.00000     3.82260
    17.80000    90.00000   360.00000     3.92361    90.00000   360.00000     3.82270
    17.90000    90.00000   360.00000     3.92370    90.00000   360.00000     3.82280
    18.00000    90.00000   360.00000     3.92380    90.00000   360.00000     3.82291
    18.10000    90.00000   360.00000     3.92389    90.00000   360.00000     3.82301
    18.20000    90.00000   360.00000     3.92398    90.00000   360.00000     3.82311
    18.30000    90.00000   360.00000     3.92407    90.00000   360.00000     3.82321
    18.40000    90.00000   360.00000     3.92416    90.00000   360.00000     3.82332
    18.50000    90.00000   360.00000     3.92425    90.00000   360.00000     3.82342
    18.60000    90.00000   360.00000     3.92434    90.00000   360.00000     3.82352
    18.70000    90.00000   360.00000     3.92443    90.00000   360.00000     3.82363
    18.80000    90.00000   360.00000     3.92453    90.00000   360.00000     3.82373
    18.90000    90.00000   360.00000     3.92462    90.00000   360.00000     3.82383
    19.00000    90.00000   360.00000     3.92471    90.00000   360.00000     3.82393
    19.10000    90.00000   360.00000     3.92480    90.00000   360.00000     3.82404
    19.20000    90.00000   360.00000     3.92489    90.00000   360.00000     3.82414
    19.30000    90.00000   360.00000     3.92498    90.00000   360.00000     3.82424
    19.40000    90.00000   360.00000     3.92507    90.00000   360.00000     3.82434
    19.50000    90.00000   360.00000     3.92516    90.00000   360.00000     3.82445
    19.60000    90.00000   360.00000     3.92525    90.00000   360.00000     3.82455
    19.70000    90.00000   360.00000     3.92535    90.00000   360.00000     3.82465
    19.80000    90.00000   360.00000     3.92544    90.00000   360.00000     3.82475
    19.90000    90.00000   360.00000     3.92553    90.00000   360.00000     3.82486
    20.00000    90.00000   360.00000     3.92562    90.00000   360.00000     3.82496
    20.10000    90.00000   360.00000     3.92571    90.00000   360.00000     3.82506
    20.20000    90.00000   360.00000     3.92580    90.00000   360.00000     3.82516
    20.30000    90.00000   360.00000     3.92589    90.00000   360.00000     3.82526
    20.40000    90.00000   360.00000     3.92598    90.00000   360.00000     3.82537
    20.50000    90.00000   360.00000     3.92607    90.00000   360.00000     3.82547
    20.60000    90.00000   360.00000     3.92616    90.00000   360.00000     3.82557
    20.70000    90.00000   360.00000     3.92625    90.00000   360.00000     3.82567
    20.80000    90.00000   360.00000     3.92634    90.00000   360.00000     3.82578
    20.90000    90.00000   360.00000     3.92643    90.00000   360.00000     3.82588
    21.00000    90.00000   360.00000     3.92653    90.00000   360.00000     3.82598
    21.10000    90.00000   360.00000     3.92662    90.00000   360.00000     3.82608
    21.20000    90.00000   360.00000     3.92671    90.00000   360.00000     3.82618
    21.30000    90.00000   360.00000     3.92680    90.00000   360.00000     3.82629
    21.40000    90.00000   360.00000     3.92689    90.00000   360.00000     3.82639
    21.50000    90.00000   360.00000     3.92698    90.00000   360.00000     3.82649
    21.60000    90.00000   360.00000     3.92707    90.00000   360.00000     3.82659
    21.70000    90.00000   360.00000     3.92716    90.00000   360.00000     3.82669
    21.80000    90.00000   360.00000     3.92725    90.00000   360.00000     3.82679
    21.90000    90.00000   360.00000     3.92734    90.00000   360.00000     3.82690
    22.00000    90.00000   360.00000     3.92743    90.00000   360.00000     3.82700
    22.10000    90.00000   360.00000     3.92752    90.00000   360.00000     3.82710
    22.20000    90.00000   360.00000     3.92761    90.00000   360.00000     3.82720
    22.30000    90.00000   360.00000     3.92770    90.00000   360.00000     3.82730
    22.40000    90.00000   360.00000     3.92779    90.00000   360.00000     3.82740
    22.50000    90.00000   360.00000     3.92788    90.00000   360.00000     3.82751
    22.60000    90.00000   360.00000     3.92797    90.00000   360.00000     3.82761
    22.70000    90.00000   360.00000     3.92806    90.00000   360.00000     3.82771
    22.80000    90.00000   360.00000     3.92815    90.00000   360.00000     3.82781
    22.90000    90.00000   360.00000     3.92824    90.00000   360.00000     3.82791
    23.00000    90.00000   360.00000     3.92833    90.00000   360.00000     3.82801
    23.10000    90.00000   360.00000     3.92842    90.00000   360.00000     3.82811
    23.20000    90.00000   360.00000     3.92851    90.00000   360.00000     3.82821
    23.30000    90.00000   360.00000     3.92860    90.00000   360.00000     3.82832
    23.40000    90.00000   360.00000     3.92869    90.00000   360.00000     3.82842
    23.50000    90.00000   360.00000     3.92878    90.00000   360.00000     3.82852
    23.60000    90.00000   360.00000     3.92887    90.00000   360.00000     3.82862
    23.70000    90.00000   360.00000     3.92896    90.00000   360.00000     3.82872
    23.80000    90.00000   360.00000     3.92905    90.00000   360.00000     3.82882
    23.90000    90.00000   360.00000     3.92914    90.00000   360.00000     3.82892
    24.00000    90.00000   360.00000     3.92923    90.00000   360.00000     3.82902
    24.10000    90.00000   360.00000     3.92932    90.00000   360.00000     3.82912
    24.20000    90.00000   360.00000     3.92941    90.00000   360.00000     3.82923
    24.30000    90.00000   360.00000     3.92950    90.00000   360.00000     3.82933
    24.40000    90.00000   360.00000     3.92959    90.00000   360.00000     3.82943
    24.50000    90.00000   360.00000     3.92968    90.00000   360.00000     3.82953
    24.60000    90.00000   360.00000     3.92976    90.00000   360.00000     3.82963
    24.70000    90.00000   360.00000     3.92985    90.00000   360.00000     3.82973
    24.80000    90.00000   360.00000     3.92994    90.00000   360.00000     3.82983
    24.90000    90.00000   360.00000     3.93003    90.00000   360.00000     3.82993
    25.00000    90.00000   360.00000     3.93012    90.00000   360.00000     3.83003
    25.10000    90.00000   360.00000     3.93021    90.00000   360.00000     3.83013
    25.20000    90.00000   360.00000     3.93030    90.00000   360.00000     3.83023
    25.30000    90.00000   360.00000     3.93039    90.00000   360.00000     3.83033
    25.40000    90.00000   360.00000     3.93048    90.00000   360.00000     3.83043
    25.50000    90.00000   360.00000     3.93057    90.00000   360.00000     3.83053
    25.60000    90.00000   360.00000     3.93066    90.00000   360.00000     3.83064
    25.70000    90.00000   360.00000     3.93075    90.00000   360.00000     3.83074
    25.80000    90.00000   360.00000     3.93084    90.00000   360.00000     3.83084
    25.90000    90.00000   360.00000     3.93092    90.00000   360.00000     3.83094
    26.00000    90.00000   360.00000     3.93101    90.00000   360.00000     3.83104
    26.10000    90.00000   360.00000     3.93110    90.00000   360.00000     3.83114
    26.20000    90.00000   360.00000     3.93119    90.00000   360.00000     3.83124
    26.30000    90.00000   360.00000     3.93128    90.00000   360.00000     3.83134
    26.40000    90.00000   360.00000     3.93137    90.00000   360.00000     3.83144
    26.50000    90.00000   360.00000     3.93146    90.00000   360.00000     3.83154
    26.60000    90.00000   360.00000     3.93155    90.00000   360.00000     3.83164
    26.70000    90.00000   360.00000     3.93164    90.00000   360.00000     3.83174
    26.80000    90.00000   360.00000     3.93172    90.00000   360.00000     3.83184
    26.90000    90.00000   360.00000     3.93181    90.00000   360.00000     3.83194
    27.00000    90.00000   360.00000     3.93190    90.00000   360.00000     3.83204
    27.10000    90.00000   360.00000     3.93199    90.00000   360.00000     3.83214
    27.20000    90.00000   360.00000     3.93208    90.00000   360.00000     3.83224
    27.30000    90.00000   360.00000     3.93217    90.00000   360.00000     3.83234
    27.40000    90.00000   360.00000     3.93226    90.00000   360.00000     3.83244
    27.50000    90.00000   360.00000     3.93235    90.00000   360.00000     3.83254
    27.60000    90.00000   360.00000     3.93243    90.00000   360.00000     3.83264
    27.70000    90.00000   360.00000     3.93252    90.00000   360.00000     3.83274
    27.80000    90.00000   360.00000     3.93261    90.00000   360.00000     3.83284
    27.90000    90.00000   360.00000     3.93270    90.00000   360.00000     3.83294
    28.00000    90.00000   360.00000     3.93279    90.00000   360.00000     3.83304
    28.10000    90.00000   360.00000     3.93288    90.00000   360.00000     3.83314
    28.20000    90.00000   360.00000     3.93296    90.00000   360.00000     3.83324
    28.30000    90.00000   360.00000     3.93305    90.00000   360.00000     3.83334
    28.40000    90.00000   360.00000     3.93314    90.00000   360.00000     3.83344
    28.50000    90.00000   360.00000     3.93323    90.00000   360.00000     3.83353
    28.60000    90.00000   360.00000     3.93332    90.00000   360.00000     3.83363
    28.70000    90.00000   360.00000     3.93341    90.00000   360.00000     3.83373
    28.80000    90.00000   360.00000     3.93349    90.00000   360.00000     3.83383
    28.90000    90.00000   360.00000     3.93358    90.00000   360.00000     3.83393
    29.00000    90.00000   360.00000     3.93367    90.00000   360.00000     3.83403
    29.10000    90.00000   360.00000     3.93376    90.00000   360.00000     3.83413
    29.20000    90.00000   360.00000     3.93385    90.00000   360.00000     3.83423
    29.30000    90.00000   360.00000     3.93393    90.00000   360.00000     3.83433
    29.40000    90.00000   360.00000     3.93402    90.00000   360.00000     3.83443
    29.50000    90.00000   360.00000     3.93411    90.00000   360.00000     3.83453
    29.60000    90.00000   360.00000     3.93420    90.00000   360.00000     3.83463
    29.70000    90.00000   360.00000     3.93429    90.00000   360.00000     3.83473
    29.80000    90.00000   360.00000     3.93437    90.00000   360.00000     3.83483
    29.90000    90.00000   360.00000     3.93446    90.00000   360.00000     3.83493
    30.00000    90.00000   360.00000     3.93455    90.00000   360.00000     3.83502
    30.10000    90.00000   360.00000     3.93464    90.00000   360.00000     3.83512
    30.20000    90.00000   360.00000     3.93472    90.00000   360.00000     3.83522
    30.30000    90.00000   360.00000     3.93481    90.00000   360.00000     3.83532
    30.40000    90.00000   360.00000     3.93490    90.00000   360.00000     3.83542
    30.50000    90.00000   360.00000     3.93499    90.00000   360.00000     3.83552
    30.60000    90.00000   360.00000     3.93508    90.00000   360.00000     3.83562
    30.70000    90.00000   360.00000     3.93516    90.00000   360.00000     3.83572
    30.80000    90.00000   360.00000     3.93525    90.00000   360.00000     3.83582
    30.90000    90.00000   360.00000     3.93534    90.00000   360.00000     3.83591
    31.00000    90.00000   360.00000     3.93543    90.00000   360.00000     3.83601
    31.10000    90.00000   360.00000     3.93551    90.00000   360.00000     3.83611
    31.20000    90.00000   360.00000     3.93560    90.00000   360.00000     3.83621
    31.30000    90.00000   360.00000     3.93569    90.00000   360.00000     3.83631
    31.40000    90.00000   360.00000     3.93578    90.00000   360.00000     3.83641
    31.50000    90.00000   360.00000     3.93586    90.00000   360.00000     3.83651
    31.60000    90.00000   360.00000     3.93595    90.00000   360.00000     3.83660
    31.70000    90.00000   360.00000     3.93604    90.00000   360.00000     3.83670
    31.80000    90.00000   360.00000     3.93612    90.00000   360.00000     3.83680
    31.90000    90.00000   360.00000     3.93621    90.00000   360.00000     3.83690
    32.00000    90.00000   360.00000     3.93630    90.00000   360.00000     3.83700
    32.10000    90.00000   360.00000     3.93639    90.00000   360.00000     3.83710
    32.20000    90.00000   360.00000     3.93647    90.00000   360.00000     3.83720
    32.30000    90.00000   360.00000     3.93656    90.00000   360.00000     3.83729
    32.40000    90.00000   360.00000     3.93665    90.00000   360.00000     3.83739
    32.50000    90.00000   360.00000     3.93673    90.00000   360.00000     3.83749
    32.60000    90.00000   360.00000     3.93682    90.00000   360.00000     3.83759
    32.70000    90.00000   360.00000     3.93691    90.00000   360.00000     3.83769
    32.80000    90.00000   360.00000     3.93700    90.00000   360.00000     3.83778
    32.90000    90.00000   360.00000     3.93708    90.00000   360.00000     3.83788
    33.00000    90.00000   360.00000     3.93717    90.00000   360.00000     3.83798
    33.10000    90.00000   360.00000     3.93726    90.00000   360.00000     3.83808
    33.20000    90.00000   360.00000     3.93734    90.00000   360.00000     3.83818
    33.30000    90.00000   360.00000     3.93743    90.00000   360.00000     3.83828
    33.40000    90.00000   360.00000     3.93752    90.00000   360.00000     3.83837
    33.50000    90.00000   360.00000     3.93760    90.00000   360.00000     3.83847
    33.60000    90.00000   360.00000     3.93769    90.00000   360.00000     3.83857
    33.70000    90.00000   360.00000     3.93778    90.00000   360.00000     3.83867
    33.80000    90.00000   360.00000     3.93786    90.00000   360.00000     3.83876
    33.90000    90.00000   360.00000     3.93795    90.00000   360.00000     3.83886
    34.00000    90.00000   360.00000     3.93804    90.00000   360.00000     3.83896
    34.10000    90.00000   360.00000     3.93812    90.00000   360.00000     3.83906
    34.20000    90.00000   360.00000     3.93821    90.00000   360.00000     3.83916
    34.30000    90.00000   360.00000     3.93830    90.00000   360.00000     3.83925
    34.40000    90.00000   360.00000     3.93838    90.00000   360.00000     3.83935
    34.50000    90.00000   360.00000     3.93847    90.00000   360.00000     3.83945
    34.60000    90.00000   360.00000     3.93856    90.00000   360.00000     3.83955
    34.70000    90.00000   360.00000     3.93864    90.00000   360.00000     3.83964
    34.80000    90.00000   360.00000     3.93873    90.00000   360.00000     3.83974
    34.90000    90.00000   360.00000     3.93881    90.00000   360.00000     3.83984
    35.00000    90.00000   360.00000     3.93890    90.00000   360.00000     3.83994
    35.10000    90.00000   360.00000     3.93899    90.00000   360.00000     3.84003
    35.20000    90.00000   360.00000     3.93907    90.00000   360.00000     3.84013
    35.30000    90.00000   360.00000     3.93916    90.00000   360.00000     3.84023
    35.40000    90.00000   360.00000     3.93925    90.00000   360.00000     3.84033
    35.50000    90.00000   360.00000     3.93933    90.00000   360.00000     3.84042
    35.60000    90.00000   360.00000     3.93942    90.00000   360.00000     3.84052
    35.70000    90.00000   360.00000     3.93950    90.00000   360.00000     3.84062
    35.80000    90.00000   360.00000     3.93959    90.00000   360.00000     3.84071
    35.90000    90.00000   360.00000     3.93968    90.00000   360.00000     3.84081
    36.00000    90.00000   360.00000     3.93976    90.00000   360.00000     3.84091
    36.10000    90.00000   360.00000     3.93985    90.00000   360.00000     3.84101
    36.20000    90.00000   360.00000     3.93993    90.00000   360.00000     3.84110
    36.30000    90.00000   360.00000     3.94002    90.00000   360.00000     3.84120
    36.40000    90.00000   360.00000     3.94011    90.00000   360.00000     3.84130
    36.50000    90.00000   360.00000     3.94019    90.00000   360.00000     3.84139
    36.60000    90.00000   360.00000     3.94028    90.00000   360.00000     3.84149
    36.70000    90.00000   360.00000     3.94036    90.00000   360.00000     3.84159
    36.80000    90.00000   360.00000     3.94045    90.00000   360.00000     3.84168
    36.90000    90.00000   360.00000     3.94053    90.00000   360.00000     3.84178
    37.00000    90.00000   360.00000     3.94062    90.00000   360.00000     3.84188
    37.10000    90.00000   360.00000     3.94071    90.00000   360.00000     3.84198
    37.20000    90.00000   360.00000     3.94079    90.00000   360.00000     3.84207
    37.30000    90.00000   360.00000     3.94088    90.00000   360.00000     3.84217
    37.40000    90.00000   360.00000     3.94096    90.00000   360.00000     3.84227
    37.50000    90.00000   360.00000     3.94105    90.00000   360.00000     3.84236
    37.60000    90.00000   360.00000     3.94113    90.00000   360.00000     3.84246
    37.70000    90.00000   360.00000     3.94122    90.00000   360.00000     3.84256
    37.80000    90.00000   360.00000     3.94130    90.00000   360.00000     3.84265
    37.90000    90.00000   360.00000     3.94139    90.00000   360.00000     3.84275
    38.00000    90.00000   360.00000     3.94147    90.00000   360.00000     3.84284
    38.10000    90.00000   360.00000     3.94156    90.00000   360.00000     3.84294
    38.20000    90.00000   360.00000     3.94165    90.00000   360.00000     3.84304
    38.30000    90.00000   360.00000     3.94173    90.00000   360.00000     3.84313
    38.40000    90.00000   360.00000     3.94182    90.00000   360.00000     3.84323
    38.50000    90.00000   360.00000     3.94190    90.00000   360.00000     3.84333
    38.60000    90.00000   360.00000     3.94199    90.00000   360.00000     3.84342
    38.70000    90.00000   360.00000     3.94207    90.00000   360.00000     3.84352
    38.80000    90.00000   360.00000     3.94216    90.00000   360.00000     3.84362
    38.90000    90.00000   360.00000     3.94224    90.00000   360.00000     3.84371
    39.00000    90.00000   360.00000     3.94233    90.00000   360.00000     3.84381
    39.10000    90.00000   360.00000     3.94241    90.00000   360.00000     3.84390
    39.20000    90.00000   360.00000     3.94250    90.00000   360.00000     3.84400
    39.30000    90.00000   360.00000     3.94258    90.00000   360.00000     3.84410
    39.40000    90.00000   360.00000     3.94267    90.00000   360.00000     3.84419
    39.50000    90.00000   360.00000     3.94275    90.00000   360.00000     3.84429
    39.60000    90.00000   360.00000     3.94284    90.00000   360.00000     3.84438
    39.70000    90.00000   360.00000     3.94292    90.00000   360.00000     3.84448
    39.80000    90.00000   360.00000     3.94301    90.00000   360.00000     3.84458
    39.90000    90.00000   360.00000     3.94309    90.00000   360.00000     3.84467
    40.00000    90.00000   360.00000     3.94318    90.00000   360.00000     3.84477
