 # applied field (T), theta (degree), phi (degree), abs [muB/unitcell], abs [T]
       0.00000000       0.00000000       0.00000000      38.92444008       1.30123628
       0.10000000      90.00000000      18.86545606      38.79183792       1.29680342
       0.20000000      90.00000000     360.00000000      38.75577109       1.29559771
       0.30000000      90.00000000     360.00000000      38.75601724       1.29560594
       0.40000000      90.00000000     360.00000000      38.75626334       1.29561417
       0.50000000      90.00000000     360.00000000      38.75650940       1.29562239
       0.60000000      90.00000000     360.00000000      38.75675541       1.29563062
       0.70000000      90.00000000     360.00000000      38.75700138       1.29563884
       0.80000000      90.00000000     360.00000000      38.75724730       1.29564706
       0.90000000      90.00000000     360.00000000      38.75749318       1.29565528
       1.00000000      90.00000000     360.00000000      38.75773901       1.29566350
       1.10000000      90.00000000     360.00000000      38.75798479       1.29567171
       1.20000000      90.00000000     360.00000000      38.75823053       1.29567993
       1.30000000      90.00000000     360.00000000      38.75847622       1.29568814
       1.40000000      90.00000000     360.00000000      38.75872187       1.29569635
       1.50000000      90.00000000     360.00000000      38.75896747       1.29570456
       1.60000000      90.00000000     360.00000000      38.75921302       1.29571277
       1.70000000      90.00000000     360.00000000      38.75945853       1.29572098
       1.80000000      90.00000000     360.00000000      38.75970399       1.29572919
       1.90000000      90.00000000     360.00000000      38.75994941       1.29573739
       2.00000000      90.00000000     360.00000000      38.76019478       1.29574559
       2.10000000      90.00000000     360.00000000      38.76044011       1.29575379
       2.20000000      90.00000000     360.00000000      38.76068539       1.29576199
       2.30000000      90.00000000     360.00000000      38.76093063       1.29577019
       2.40000000      90.00000000     360.00000000      38.76117582       1.29577839
       2.50000000      90.00000000     360.00000000      38.76142096       1.29578658
       2.60000000      90.00000000     360.00000000      38.76166606       1.29579478
       2.70000000      90.00000000     360.00000000      38.76191111       1.29580297
       2.80000000      90.00000000     360.00000000      38.76215612       1.29581116
       2.90000000      90.00000000     360.00000000      38.76240108       1.29581935
       3.00000000      90.00000000     360.00000000      38.76264600       1.29582754
       3.10000000      90.00000000     360.00000000      38.76289087       1.29583572
       3.20000000      90.00000000     360.00000000      38.76313569       1.29584391
       3.30000000      90.00000000     360.00000000      38.76338047       1.29585209
       3.40000000      90.00000000     360.00000000      38.76362520       1.29586027
       3.50000000      90.00000000     360.00000000      38.76386989       1.29586845
       3.60000000      90.00000000     360.00000000      38.76411453       1.29587663
       3.70000000      90.00000000     360.00000000      38.76435913       1.29588481
       3.80000000      90.00000000     360.00000000      38.76460368       1.29589298
       3.90000000      90.00000000     360.00000000      38.76484819       1.29590116
       4.00000000      90.00000000     360.00000000      38.76509265       1.29590933
       4.10000000      90.00000000     360.00000000      38.76533706       1.29591750
       4.20000000      90.00000000     360.00000000      38.76558143       1.29592567
       4.30000000      90.00000000     360.00000000      38.76582576       1.29593384
       4.40000000      90.00000000     360.00000000      38.76607004       1.29594200
       4.50000000      90.00000000     360.00000000      38.76631427       1.29595017
       4.60000000      90.00000000     360.00000000      38.76655846       1.29595833
       4.70000000      90.00000000     360.00000000      38.76680260       1.29596649
       4.80000000      90.00000000     360.00000000      38.76704670       1.29597465
       4.90000000      90.00000000     360.00000000      38.76729075       1.29598281
       5.00000000      90.00000000     360.00000000      38.76753476       1.29599097
       5.10000000      90.00000000     360.00000000      38.76777872       1.29599912
       5.20000000      90.00000000     360.00000000      38.76802263       1.29600728
       5.30000000      90.00000000     360.00000000      38.76826650       1.29601543
       5.40000000      90.00000000     360.00000000      38.76851033       1.29602358
       5.50000000      90.00000000     360.00000000      38.76875410       1.29603173
       5.60000000      90.00000000     360.00000000      38.76899784       1.29603988
       5.70000000      90.00000000     360.00000000      38.76924153       1.29604802
       5.80000000      90.00000000     360.00000000      38.76948517       1.29605617
       5.90000000      90.00000000     360.00000000      38.76972877       1.29606431
       6.00000000      90.00000000     360.00000000      38.76997232       1.29607245
       6.10000000      90.00000000     360.00000000      38.77021583       1.29608059
       6.20000000      90.00000000     360.00000000      38.77045929       1.29608873
       6.30000000      90.00000000     360.00000000      38.77070270       1.29609687
       6.40000000      90.00000000     360.00000000      38.77094607       1.29610501
       6.50000000      90.00000000     360.00000000      38.77118940       1.29611314
       6.60000000      90.00000000     360.00000000      38.77143268       1.29612127
       6.70000000      90.00000000     360.00000000      38.77167591       1.29612940
       6.80000000      90.00000000     360.00000000      38.77191910       1.29613753
       6.90000000      90.00000000     360.00000000      38.77216224       1.29614566
       7.00000000      90.00000000     360.00000000      38.77240534       1.29615379
       7.10000000      90.00000000     360.00000000      38.77264839       1.29616191
       7.20000000      90.00000000     360.00000000      38.77289140       1.29617004
       7.30000000      90.00000000     360.00000000      38.77313436       1.29617816
       7.40000000      90.00000000     360.00000000      38.77337728       1.29618628
       7.50000000      90.00000000     360.00000000      38.77362015       1.29619440
       7.60000000      90.00000000     360.00000000      38.77386297       1.29620252
       7.70000000      90.00000000     360.00000000      38.77410575       1.29621063
       7.80000000      90.00000000     360.00000000      38.77434849       1.29621875
       7.90000000      90.00000000     360.00000000      38.77459118       1.29622686
       8.00000000      90.00000000     360.00000000      38.77483382       1.29623497
       8.10000000      90.00000000     360.00000000      38.77507642       1.29624308
       8.20000000      90.00000000     360.00000000      38.77531897       1.29625119
       8.30000000      90.00000000     360.00000000      38.77556148       1.29625930
       8.40000000      90.00000000     360.00000000      38.77580394       1.29626740
       8.50000000      90.00000000     360.00000000      38.77604636       1.29627551
       8.60000000      90.00000000     360.00000000      38.77628873       1.29628361
       8.70000000      90.00000000     360.00000000      38.77653105       1.29629171
       8.80000000      90.00000000     360.00000000      38.77677333       1.29629981
       8.90000000      90.00000000     360.00000000      38.77701557       1.29630791
       9.00000000      90.00000000     360.00000000      38.77725775       1.29631600
       9.10000000      90.00000000     360.00000000      38.77749990       1.29632410
       9.20000000      90.00000000     360.00000000      38.77774199       1.29633219
       9.30000000      90.00000000     360.00000000      38.77798405       1.29634028
       9.40000000      90.00000000     360.00000000      38.77822605       1.29634837
       9.50000000      90.00000000     360.00000000      38.77846801       1.29635646
       9.60000000      90.00000000     360.00000000      38.77870993       1.29636455
       9.70000000      90.00000000     360.00000000      38.77895180       1.29637264
       9.80000000      90.00000000     360.00000000      38.77919363       1.29638072
       9.90000000      90.00000000     360.00000000      38.77943540       1.29638880
      10.00000000      90.00000000     360.00000000      38.77967714       1.29639688
      10.10000000      90.00000000     360.00000000      38.77991883       1.29640496
      10.20000000      90.00000000     360.00000000      38.78016047       1.29641304
      10.30000000      90.00000000     360.00000000      38.78040207       1.29642112
      10.40000000      90.00000000     360.00000000      38.78064362       1.29642919
      10.50000000      90.00000000     360.00000000      38.78088513       1.29643727
      10.60000000      90.00000000     360.00000000      38.78112659       1.29644534
      10.70000000      90.00000000     360.00000000      38.78136801       1.29645341
      10.80000000      90.00000000     360.00000000      38.78160938       1.29646148
      10.90000000      90.00000000     360.00000000      38.78185071       1.29646955
      11.00000000      90.00000000     360.00000000      38.78209199       1.29647761
      11.10000000      90.00000000     360.00000000      38.78233323       1.29648568
      11.20000000      90.00000000     360.00000000      38.78257443       1.29649374
      11.30000000      90.00000000     360.00000000      38.78281558       1.29650180
      11.40000000      90.00000000     360.00000000      38.78305669       1.29650986
      11.50000000      90.00000000     360.00000000      38.78329775       1.29651792
      11.60000000      90.00000000     360.00000000      38.78353877       1.29652598
      11.70000000      90.00000000     360.00000000      38.78377974       1.29653403
      11.80000000      90.00000000     360.00000000      38.78402066       1.29654209
      11.90000000      90.00000000     360.00000000      38.78426154       1.29655014
      12.00000000      90.00000000     360.00000000      38.78450237       1.29655819
      12.10000000      90.00000000     360.00000000      38.78474316       1.29656624
      12.20000000      90.00000000     360.00000000      38.78498390       1.29657429
      12.30000000      90.00000000     360.00000000      38.78522460       1.29658233
      12.40000000      90.00000000     360.00000000      38.78546525       1.29659038
      12.50000000      90.00000000     360.00000000      38.78570586       1.29659842
      12.60000000      90.00000000     360.00000000      38.78594643       1.29660647
      12.70000000      90.00000000     360.00000000      38.78618695       1.29661451
      12.80000000      90.00000000     360.00000000      38.78642742       1.29662254
      12.90000000      90.00000000     360.00000000      38.78666785       1.29663058
      13.00000000      90.00000000     360.00000000      38.78690824       1.29663862
      13.10000000      90.00000000     360.00000000      38.78714858       1.29664665
      13.20000000      90.00000000     360.00000000      38.78738888       1.29665469
      13.30000000      90.00000000     360.00000000      38.78762914       1.29666272
      13.40000000      90.00000000     360.00000000      38.78786935       1.29667075
      13.50000000      90.00000000     360.00000000      38.78810951       1.29667878
      13.60000000      90.00000000     360.00000000      38.78834963       1.29668680
      13.70000000      90.00000000     360.00000000      38.78858971       1.29669483
      13.80000000      90.00000000     360.00000000      38.78882974       1.29670285
      13.90000000      90.00000000     360.00000000      38.78906973       1.29671088
      14.00000000      90.00000000     360.00000000      38.78930968       1.29671890
      14.10000000      90.00000000     360.00000000      38.78954958       1.29672692
      14.20000000      90.00000000     360.00000000      38.78978944       1.29673494
      14.30000000      90.00000000     360.00000000      38.79002925       1.29674295
      14.40000000      90.00000000     360.00000000      38.79026902       1.29675097
      14.50000000      90.00000000     360.00000000      38.79050875       1.29675898
      14.60000000      90.00000000     360.00000000      38.79074843       1.29676700
      14.70000000      90.00000000     360.00000000      38.79098807       1.29677501
      14.80000000      90.00000000     360.00000000      38.79122767       1.29678302
      14.90000000      90.00000000     360.00000000      38.79146722       1.29679102
      15.00000000      90.00000000     360.00000000      38.79170673       1.29679903
      15.10000000      90.00000000     360.00000000      38.79194619       1.29680704
      15.20000000      90.00000000     360.00000000      38.79218561       1.29681504
      15.30000000      90.00000000     360.00000000      38.79242499       1.29682304
      15.40000000      90.00000000     360.00000000      38.79266432       1.29683104
      15.50000000      90.00000000     360.00000000      38.79290362       1.29683904
      15.60000000      90.00000000     360.00000000      38.79314286       1.29684704
      15.70000000      90.00000000     360.00000000      38.79338207       1.29685504
      15.80000000      90.00000000     360.00000000      38.79362123       1.29686303
      15.90000000      90.00000000     360.00000000      38.79386034       1.29687103
      16.00000000      90.00000000     360.00000000      38.79409942       1.29687902
      16.10000000      90.00000000     360.00000000      38.79433845       1.29688701
      16.20000000      90.00000000     360.00000000      38.79457743       1.29689500
      16.30000000      90.00000000     360.00000000      38.79481638       1.29690299
      16.40000000      90.00000000     360.00000000      38.79505528       1.29691097
      16.50000000      90.00000000     360.00000000      38.79529413       1.29691896
      16.60000000      90.00000000     360.00000000      38.79553295       1.29692694
      16.70000000      90.00000000     360.00000000      38.79577172       1.29693492
      16.80000000      90.00000000     360.00000000      38.79601045       1.29694290
      16.90000000      90.00000000     360.00000000      38.79624913       1.29695088
      17.00000000      90.00000000     360.00000000      38.79648777       1.29695886
      17.10000000      90.00000000     360.00000000      38.79672637       1.29696684
      17.20000000      90.00000000     360.00000000      38.79696493       1.29697481
      17.30000000      90.00000000     360.00000000      38.79720344       1.29698278
      17.40000000      90.00000000     360.00000000      38.79744191       1.29699076
      17.50000000      90.00000000     360.00000000      38.79768033       1.29699873
      17.60000000      90.00000000     360.00000000      38.79791872       1.29700670
      17.70000000      90.00000000     360.00000000      38.79815706       1.29701466
      17.80000000      90.00000000     360.00000000      38.79839535       1.29702263
      17.90000000      90.00000000     360.00000000      38.79863361       1.29703060
      18.00000000      90.00000000     360.00000000      38.79887182       1.29703856
      18.10000000      90.00000000     360.00000000      38.79910999       1.29704652
      18.20000000      90.00000000     360.00000000      38.79934812       1.29705448
      18.30000000      90.00000000     360.00000000      38.79958620       1.29706244
      18.40000000      90.00000000     360.00000000      38.79982424       1.29707040
      18.50000000      90.00000000     360.00000000      38.80006224       1.29707835
      18.60000000      90.00000000     360.00000000      38.80030019       1.29708631
      18.70000000      90.00000000     360.00000000      38.80053810       1.29709426
      18.80000000      90.00000000     360.00000000      38.80077597       1.29710221
      18.90000000      90.00000000     360.00000000      38.80101380       1.29711016
      19.00000000      90.00000000     360.00000000      38.80125158       1.29711811
      19.10000000      90.00000000     360.00000000      38.80148933       1.29712606
      19.20000000      90.00000000     360.00000000      38.80172703       1.29713401
      19.30000000      90.00000000     360.00000000      38.80196468       1.29714195
      19.40000000      90.00000000     360.00000000      38.80220230       1.29714990
      19.50000000      90.00000000     360.00000000      38.80243987       1.29715784
      19.60000000      90.00000000     360.00000000      38.80267740       1.29716578
      19.70000000      90.00000000     360.00000000      38.80291488       1.29717372
      19.80000000      90.00000000     360.00000000      38.80315233       1.29718166
      19.90000000      90.00000000     360.00000000      38.80338973       1.29718959
      20.00000000      90.00000000     360.00000000      38.80362708       1.29719753
      20.10000000      90.00000000     360.00000000      38.80386440       1.29720546
      20.20000000      90.00000000     360.00000000      38.80410168       1.29721339
      20.30000000      90.00000000     360.00000000      38.80433891       1.29722132
      20.40000000      90.00000000     360.00000000      38.80457610       1.29722925
      20.50000000      90.00000000     360.00000000      38.80481324       1.29723718
      20.60000000      90.00000000     360.00000000      38.80505035       1.29724511
      20.70000000      90.00000000     360.00000000      38.80528741       1.29725303
      20.80000000      90.00000000     360.00000000      38.80552443       1.29726095
      20.90000000      90.00000000     360.00000000      38.80576141       1.29726888
      21.00000000      90.00000000     360.00000000      38.80599834       1.29727680
      21.10000000      90.00000000     360.00000000      38.80623523       1.29728472
      21.20000000      90.00000000     360.00000000      38.80647208       1.29729263
      21.30000000      90.00000000     360.00000000      38.80670889       1.29730055
      21.40000000      90.00000000     360.00000000      38.80694566       1.29730847
      21.50000000      90.00000000     360.00000000      38.80718238       1.29731638
      21.60000000      90.00000000     360.00000000      38.80741907       1.29732429
      21.70000000      90.00000000     360.00000000      38.80765571       1.29733220
      21.80000000      90.00000000     360.00000000      38.80789230       1.29734011
      21.90000000      90.00000000     360.00000000      38.80812886       1.29734802
      22.00000000      90.00000000     360.00000000      38.80836537       1.29735593
      22.10000000      90.00000000     360.00000000      38.80860185       1.29736383
      22.20000000      90.00000000     360.00000000      38.80883827       1.29737174
      22.30000000      90.00000000     360.00000000      38.80907466       1.29737964
      22.40000000      90.00000000     360.00000000      38.80931101       1.29738754
      22.50000000      90.00000000     360.00000000      38.80954731       1.29739544
      22.60000000      90.00000000     360.00000000      38.80978357       1.29740334
      22.70000000      90.00000000     360.00000000      38.81001979       1.29741123
      22.80000000      90.00000000     360.00000000      38.81025597       1.29741913
      22.90000000      90.00000000     360.00000000      38.81049211       1.29742702
      23.00000000      90.00000000     360.00000000      38.81072820       1.29743492
      23.10000000      90.00000000     360.00000000      38.81096425       1.29744281
      23.20000000      90.00000000     360.00000000      38.81120027       1.29745070
      23.30000000      90.00000000     360.00000000      38.81143623       1.29745858
      23.40000000      90.00000000     360.00000000      38.81167216       1.29746647
      23.50000000      90.00000000     360.00000000      38.81190805       1.29747436
      23.60000000      90.00000000     360.00000000      38.81214389       1.29748224
      23.70000000      90.00000000     360.00000000      38.81237969       1.29749012
      23.80000000      90.00000000     360.00000000      38.81261545       1.29749801
      23.90000000      90.00000000     360.00000000      38.81285117       1.29750589
      24.00000000      90.00000000     360.00000000      38.81308685       1.29751376
      24.10000000      90.00000000     360.00000000      38.81332249       1.29752164
      24.20000000      90.00000000     360.00000000      38.81355808       1.29752952
      24.30000000      90.00000000     360.00000000      38.81379363       1.29753739
      24.40000000      90.00000000     360.00000000      38.81402914       1.29754526
      24.50000000      90.00000000     360.00000000      38.81426461       1.29755314
      24.60000000      90.00000000     360.00000000      38.81450004       1.29756101
      24.70000000      90.00000000     360.00000000      38.81473543       1.29756888
      24.80000000      90.00000000     360.00000000      38.81497077       1.29757674
      24.90000000      90.00000000     360.00000000      38.81520607       1.29758461
      25.00000000      90.00000000     360.00000000      38.81544134       1.29759247
      25.10000000      90.00000000     360.00000000      38.81567656       1.29760034
      25.20000000      90.00000000     360.00000000      38.81591173       1.29760820
      25.30000000      90.00000000     360.00000000      38.81614687       1.29761606
      25.40000000      90.00000000     360.00000000      38.81638197       1.29762392
      25.50000000      90.00000000     360.00000000      38.81661702       1.29763178
      25.60000000      90.00000000     360.00000000      38.81685203       1.29763963
      25.70000000      90.00000000     360.00000000      38.81708701       1.29764749
      25.80000000      90.00000000     360.00000000      38.81732194       1.29765534
      25.90000000      90.00000000     360.00000000      38.81755682       1.29766319
      26.00000000      90.00000000     360.00000000      38.81779167       1.29767105
      26.10000000      90.00000000     360.00000000      38.81802648       1.29767889
      26.20000000      90.00000000     360.00000000      38.81826124       1.29768674
      26.30000000      90.00000000     360.00000000      38.81849596       1.29769459
      26.40000000      90.00000000     360.00000000      38.81873065       1.29770244
      26.50000000      90.00000000     360.00000000      38.81896529       1.29771028
      26.60000000      90.00000000     360.00000000      38.81919988       1.29771812
      26.70000000      90.00000000     360.00000000      38.81943444       1.29772596
      26.80000000      90.00000000     360.00000000      38.81966896       1.29773380
      26.90000000      90.00000000     360.00000000      38.81990344       1.29774164
      27.00000000      90.00000000     360.00000000      38.82013788       1.29774948
      27.10000000      90.00000000     360.00000000      38.82037227       1.29775731
      27.20000000      90.00000000     360.00000000      38.82060662       1.29776515
      27.30000000      90.00000000     360.00000000      38.82084093       1.29777298
      27.40000000      90.00000000     360.00000000      38.82107520       1.29778081
      27.50000000      90.00000000     360.00000000      38.82130943       1.29778864
      27.60000000      90.00000000     360.00000000      38.82154361       1.29779647
      27.70000000      90.00000000     360.00000000      38.82177776       1.29780430
      27.80000000      90.00000000     360.00000000      38.82201186       1.29781213
      27.90000000      90.00000000     360.00000000      38.82224593       1.29781995
      28.00000000      90.00000000     360.00000000      38.82247995       1.29782777
      28.10000000      90.00000000     360.00000000      38.82271393       1.29783560
      28.20000000      90.00000000     360.00000000      38.82294787       1.29784342
      28.30000000      90.00000000     360.00000000      38.82318177       1.29785124
      28.40000000      90.00000000     360.00000000      38.82341563       1.29785905
      28.50000000      90.00000000     360.00000000      38.82364945       1.29786687
      28.60000000      90.00000000     360.00000000      38.82388322       1.29787468
      28.70000000      90.00000000     360.00000000      38.82411696       1.29788250
      28.80000000      90.00000000     360.00000000      38.82435065       1.29789031
      28.90000000      90.00000000     360.00000000      38.82458431       1.29789812
      29.00000000      90.00000000     360.00000000      38.82481792       1.29790593
      29.10000000      90.00000000     360.00000000      38.82505150       1.29791374
      29.20000000      90.00000000     360.00000000      38.82528503       1.29792155
      29.30000000      90.00000000     360.00000000      38.82551852       1.29792935
      29.40000000      90.00000000     360.00000000      38.82575197       1.29793716
      29.50000000      90.00000000     360.00000000      38.82598538       1.29794496
      29.60000000      90.00000000     360.00000000      38.82621875       1.29795276
      29.70000000      90.00000000     360.00000000      38.82645208       1.29796056
      29.80000000      90.00000000     360.00000000      38.82668536       1.29796836
      29.90000000      90.00000000     360.00000000      38.82691861       1.29797616
      30.00000000      90.00000000     360.00000000      38.82715182       1.29798395
      30.10000000      90.00000000     360.00000000      38.82738498       1.29799175
      30.20000000      90.00000000     360.00000000      38.82761811       1.29799954
      30.30000000      90.00000000     360.00000000      38.82785119       1.29800733
      30.40000000      90.00000000     360.00000000      38.82808424       1.29801512
      30.50000000      90.00000000     360.00000000      38.82831724       1.29802291
      30.60000000      90.00000000     360.00000000      38.82855020       1.29803070
      30.70000000      90.00000000     360.00000000      38.82878313       1.29803849
      30.80000000      90.00000000     360.00000000      38.82901601       1.29804627
      30.90000000      90.00000000     360.00000000      38.82924885       1.29805406
      31.00000000      90.00000000     360.00000000      38.82948165       1.29806184
      31.10000000      90.00000000     360.00000000      38.82971441       1.29806962
      31.20000000      90.00000000     360.00000000      38.82994713       1.29807740
      31.30000000      90.00000000     360.00000000      38.83017982       1.29808518
      31.40000000      90.00000000     360.00000000      38.83041246       1.29809296
      31.50000000      90.00000000     360.00000000      38.83064505       1.29810073
      31.60000000      90.00000000     360.00000000      38.83087761       1.29810851
      31.70000000      90.00000000     360.00000000      38.83111013       1.29811628
      31.80000000      90.00000000     360.00000000      38.83134261       1.29812405
      31.90000000      90.00000000     360.00000000      38.83157505       1.29813182
      32.00000000      90.00000000     360.00000000      38.83180745       1.29813959
      32.10000000      90.00000000     360.00000000      38.83203981       1.29814736
      32.20000000      90.00000000     360.00000000      38.83227213       1.29815512
      32.30000000      90.00000000     360.00000000      38.83250440       1.29816289
      32.40000000      90.00000000     360.00000000      38.83273664       1.29817065
      32.50000000      90.00000000     360.00000000      38.83296884       1.29817842
      32.60000000      90.00000000     360.00000000      38.83320100       1.29818618
      32.70000000      90.00000000     360.00000000      38.83343312       1.29819394
      32.80000000      90.00000000     360.00000000      38.83366519       1.29820169
      32.90000000      90.00000000     360.00000000      38.83389723       1.29820945
      33.00000000      90.00000000     360.00000000      38.83412923       1.29821721
      33.10000000      90.00000000     360.00000000      38.83436119       1.29822496
      33.20000000      90.00000000     360.00000000      38.83459310       1.29823271
      33.30000000      90.00000000     360.00000000      38.83482498       1.29824047
      33.40000000      90.00000000     360.00000000      38.83505682       1.29824822
      33.50000000      90.00000000     360.00000000      38.83528862       1.29825596
      33.60000000      90.00000000     360.00000000      38.83552038       1.29826371
      33.70000000      90.00000000     360.00000000      38.83575209       1.29827146
      33.80000000      90.00000000     360.00000000      38.83598377       1.29827920
      33.90000000      90.00000000     360.00000000      38.83621541       1.29828695
      34.00000000      90.00000000     360.00000000      38.83644701       1.29829469
      34.10000000      90.00000000     360.00000000      38.83667857       1.29830243
      34.20000000      90.00000000     360.00000000      38.83691009       1.29831017
      34.30000000      90.00000000     360.00000000      38.83714157       1.29831791
      34.40000000      90.00000000     360.00000000      38.83737301       1.29832565
      34.50000000      90.00000000     360.00000000      38.83760441       1.29833338
      34.60000000      90.00000000     360.00000000      38.83783577       1.29834112
      34.70000000      90.00000000     360.00000000      38.83806709       1.29834885
      34.80000000      90.00000000     360.00000000      38.83829838       1.29835658
      34.90000000      90.00000000     360.00000000      38.83852962       1.29836431
      35.00000000      90.00000000     360.00000000      38.83876082       1.29837204
      35.10000000      90.00000000     360.00000000      38.83899198       1.29837977
      35.20000000      90.00000000     360.00000000      38.83922311       1.29838749
      35.30000000      90.00000000     360.00000000      38.83945419       1.29839522
      35.40000000      90.00000000     360.00000000      38.83968523       1.29840294
      35.50000000      90.00000000     360.00000000      38.83991624       1.29841067
      35.60000000      90.00000000     360.00000000      38.84014720       1.29841839
      35.70000000      90.00000000     360.00000000      38.84037813       1.29842611
      35.80000000      90.00000000     360.00000000      38.84060901       1.29843382
      35.90000000      90.00000000     360.00000000      38.84083986       1.29844154
      36.00000000      90.00000000     360.00000000      38.84107066       1.29844926
      36.10000000      90.00000000     360.00000000      38.84130143       1.29845697
      36.20000000      90.00000000     360.00000000      38.84153216       1.29846469
      36.30000000      90.00000000     360.00000000      38.84176285       1.29847240
      36.40000000      90.00000000     360.00000000      38.84199350       1.29848011
      36.50000000      90.00000000     360.00000000      38.84222411       1.29848782
      36.60000000      90.00000000     360.00000000      38.84245468       1.29849552
      36.70000000      90.00000000     360.00000000      38.84268521       1.29850323
      36.80000000      90.00000000     360.00000000      38.84291571       1.29851094
      36.90000000      90.00000000     360.00000000      38.84314616       1.29851864
      37.00000000      90.00000000     360.00000000      38.84337658       1.29852634
      37.10000000      90.00000000     360.00000000      38.84360695       1.29853405
      37.20000000      90.00000000     360.00000000      38.84383729       1.29854175
      37.30000000      90.00000000     360.00000000      38.84406759       1.29854944
      37.40000000      90.00000000     360.00000000      38.84429785       1.29855714
      37.50000000      90.00000000     360.00000000      38.84452807       1.29856484
      37.60000000      90.00000000     360.00000000      38.84475825       1.29857253
      37.70000000      90.00000000     360.00000000      38.84498840       1.29858023
      37.80000000      90.00000000     360.00000000      38.84521850       1.29858792
      37.90000000      90.00000000     360.00000000      38.84544857       1.29859561
      38.00000000      90.00000000     360.00000000      38.84567859       1.29860330
      38.10000000      90.00000000     360.00000000      38.84590858       1.29861099
      38.20000000      90.00000000     360.00000000      38.84613853       1.29861868
      38.30000000      90.00000000     360.00000000      38.84636844       1.29862636
      38.40000000      90.00000000     360.00000000      38.84659831       1.29863405
      38.50000000      90.00000000     360.00000000      38.84682815       1.29864173
      38.60000000      90.00000000     360.00000000      38.84705794       1.29864941
      38.70000000      90.00000000     360.00000000      38.84728770       1.29865709
      38.80000000      90.00000000     360.00000000      38.84751742       1.29866477
      38.90000000      90.00000000     360.00000000      38.84774710       1.29867245
      39.00000000      90.00000000     360.00000000      38.84797674       1.29868013
      39.10000000      90.00000000     360.00000000      38.84820634       1.29868780
      39.20000000      90.00000000     360.00000000      38.84843591       1.29869548
      39.30000000      90.00000000     360.00000000      38.84866543       1.29870315
      39.40000000      90.00000000     360.00000000      38.84889492       1.29871082
      39.50000000      90.00000000     360.00000000      38.84912437       1.29871849
      39.60000000      90.00000000     360.00000000      38.84935379       1.29872616
      39.70000000      90.00000000     360.00000000      38.84958316       1.29873383
      39.80000000      90.00000000     360.00000000      38.84981249       1.29874150
      39.90000000      90.00000000     360.00000000      38.85004179       1.29874916
      40.00000000      90.00000000     360.00000000      38.85027105       1.29875682
