 # applied field (T), theta (degree), phi (degree), abs for RE 3-4
     0.00000   179.67511   315.00000     3.91388   179.67511   225.00000     3.91388
     0.10000   179.49348   205.09613     3.91425   179.04967   194.93053     3.91391
     0.20000   178.83537   189.88720     3.91456   178.37233   189.19268     3.91389
     0.30000   178.15445   185.75790     3.91482   177.68819   186.83850     3.91382
     0.40000   177.46880   183.85914     3.91501   177.00179   185.56166     3.91368
     0.50000   176.78117   182.77054     3.91514   176.31426   184.76160     3.91349
     0.60000   176.09234   182.06537     3.91520   175.62598   184.21387     3.91325
     0.70000   175.40258   181.57159     3.91520   174.93708   183.81573     3.91295
     0.80000   174.71202   181.20662     3.91512   174.24762   183.51352     3.91259
     0.90000   174.02067   180.92590     3.91498   173.55761   183.27651     3.91218
     1.00000   173.32853   180.70329     3.91477   172.86700   183.08583     3.91172
     1.10000   172.63558   180.52241     3.91449   172.17579   182.92925     3.91120
     1.20000   171.88838   180.36210     3.91410   171.43066   182.78928     3.91059
     1.30000   171.19364   180.23743     3.91367   170.73804   182.67990     3.90997
     1.40000   170.44443   180.12332     3.91312   169.99129   182.57941     3.90925
     1.50000   169.74775   180.03211     3.91253   169.29707   182.49903     3.90853
     1.60000   168.99633   179.94665     3.91181   168.54851   182.42370     3.90770
     1.70000   168.24371   179.87193     3.91101   167.79891   182.35796     3.90682
     1.80000   167.48982   179.80600     3.91011   167.04824   182.30017     3.90589
     1.90000   166.73461   179.74736     3.90913   166.29643   182.24902     3.90491
     2.00000   165.92394   179.69131     3.90799   165.48959   182.20041     3.90381
     2.10000   165.16586   179.64428     3.90682   164.73527   182.16000     3.90274
     2.20000   164.35200   179.59873     3.90548   163.92564   182.12119     3.90153
     2.30000   163.53642   179.55743     3.90404   163.11447   182.08640     3.90029
     2.40000   162.71906   179.51977     3.90250   162.30173   182.05508     3.89899
     2.50000   161.89987   179.48526     3.90085   161.48735   182.02677     3.89766
     2.60000   161.02400   179.45145     3.89899   160.61684   181.99946     3.89619
     2.70000   160.14594   179.42033     3.89702   159.74437   181.97477     3.89468
     2.80000   159.26564   179.39154     3.89495   158.86991   181.95237     3.89313
     2.90000   158.32782   179.36319     3.89262   157.93856   181.93077     3.89145
     3.00000   157.38737   179.33684     3.89018   157.00487   181.91116     3.88973
     3.10000   156.44424   179.31224     3.88763   156.06881   181.89332     3.88798
     3.20000   155.44265   179.28788     3.88481   155.07506   181.87612     3.88609
     3.30000   154.43796   179.26503     3.88186   154.07860   181.86046     3.88418
     3.40000   153.37405   179.24236     3.87864   153.02382   181.84539     3.88215
     3.50000   152.25030   179.21989     3.87512   151.91022   181.83097     3.87998
     3.60000   151.12259   179.19866     3.87147   150.79324   181.81785     3.87780
     3.70000   149.93419   179.17754     3.86753   149.61679   181.80529     3.87551
     3.80000   148.68444   179.15654     3.86328   148.38035   181.79331     3.87310
     3.90000   147.37268   179.13564     3.85873   147.08345   181.78189     3.87060
     4.00000   145.94081   179.11397     3.85368   145.66890   181.77061     3.86789
     4.10000   144.44504   179.09242     3.84835   144.19252   181.75992     3.86512
     4.20000   142.88465   179.07092     3.84276   142.65387   181.74979     3.86228
     4.30000   141.14259   179.04793     3.83653   140.93793   181.73948     3.85919
     4.40000   139.27501   179.02423     3.82994   139.10062   181.72939     3.85600
     4.50000   137.16289   178.99838     3.82268   137.02557   181.71890     3.85255
     4.60000   134.74396   178.96974     3.81474   134.65271   181.70778     3.84882
     4.70000   131.89547   178.93700     3.80610   131.86306   181.69551     3.84474
     4.80000   128.31327   178.89690     3.79661   128.36075   181.68071     3.84012
     4.90000   123.32791   178.84254     3.78656   123.49360   181.66023     3.83459
     5.00000   112.10143   178.72597     3.77924   112.52642   181.60904     3.82547
     5.10000    89.66304   178.53584     3.81475    90.33696   181.46416     3.81475
     5.20000    89.66303   178.53581     3.81475    90.33697   181.46419     3.81475
     5.30000    89.66302   178.53579     3.81475    90.33698   181.46421     3.81475
     5.40000    89.66302   178.53577     3.81475    90.33698   181.46423     3.81475
     5.50000    89.66301   178.53575     3.81475    90.33699   181.46425     3.81475
     5.60000    89.66301   178.53573     3.81475    90.33699   181.46427     3.81475
     5.70000    89.66300   178.53571     3.81475    90.33700   181.46429     3.81475
     5.80000    89.66300   178.53569     3.81475    90.33700   181.46431     3.81475
     5.90000    89.66299   178.53567     3.81475    90.33701   181.46433     3.81475
     6.00000    89.66299   178.53565     3.81475    90.33701   181.46435     3.81475
     6.10000    89.66298   178.53563     3.81475    90.33702   181.46437     3.81475
     6.20000    89.66298   178.53561     3.81475    90.33702   181.46439     3.81475
     6.30000    89.66297   178.53559     3.81475    90.33703   181.46441     3.81475
     6.40000    89.66296   178.53557     3.81475    90.33704   181.46443     3.81475
     6.50000    89.66296   178.53555     3.81475    90.33704   181.46445     3.81475
     6.60000    89.66295   178.53553     3.81474    90.33705   181.46447     3.81474
     6.70000    89.66295   178.53551     3.81474    90.33705   181.46449     3.81474
     6.80000    89.66294   178.53549     3.81474    90.33706   181.46451     3.81474
     6.90000    89.66294   178.53547     3.81474    90.33706   181.46453     3.81474
     7.00000    89.66293   178.53545     3.81474    90.33707   181.46455     3.81474
     7.10000    89.66293   178.53543     3.81474    90.33707   181.46457     3.81474
     7.20000    89.66292   178.53541     3.81474    90.33708   181.46459     3.81474
     7.30000    89.66291   178.53539     3.81474    90.33709   181.46461     3.81474
     7.40000    89.66291   178.53537     3.81474    90.33709   181.46463     3.81474
     7.50000    89.66290   178.53535     3.81474    90.33710   181.46465     3.81474
     7.60000    89.66290   178.53533     3.81474    90.33710   181.46467     3.81474
     7.70000    89.66289   178.53531     3.81474    90.33711   181.46469     3.81474
     7.80000    89.66289   178.53529     3.81474    90.33711   181.46471     3.81474
     7.90000    89.66288   178.53527     3.81474    90.33712   181.46473     3.81474
     8.00000    89.66288   178.53525     3.81474    90.33712   181.46475     3.81474
     8.10000    89.66287   178.53523     3.81473    90.33713   181.46477     3.81473
     8.20000    89.66286   178.53521     3.81473    90.33714   181.46479     3.81473
     8.30000    89.66286   178.53519     3.81473    90.33714   181.46481     3.81473
     8.40000    89.66285   178.53517     3.81473    90.33715   181.46483     3.81473
     8.50000    89.66285   178.53515     3.81473    90.33715   181.46485     3.81473
     8.60000    89.66284   178.53513     3.81473    90.33716   181.46487     3.81473
     8.70000    89.66284   178.53510     3.81473    90.33716   181.46490     3.81473
     8.80000    89.66283   178.53508     3.81473    90.33717   181.46492     3.81473
     8.90000    89.66283   178.53506     3.81473    90.33717   181.46494     3.81473
     9.00000    89.66282   178.53504     3.81473    90.33718   181.46496     3.81473
     9.10000    89.66281   178.53502     3.81472    90.33719   181.46498     3.81472
     9.20000    89.66281   178.53500     3.81472    90.33719   181.46500     3.81472
     9.30000    89.66280   178.53498     3.81472    90.33720   181.46502     3.81472
     9.40000    89.66280   178.53496     3.81472    90.33720   181.46504     3.81472
     9.50000    89.66279   178.53494     3.81472    90.33721   181.46506     3.81472
     9.60000    89.66279   178.53492     3.81472    90.33721   181.46508     3.81472
     9.70000    89.66278   178.53490     3.81472    90.33722   181.46510     3.81472
     9.80000    89.66278   178.53488     3.81472    90.33722   181.46512     3.81472
     9.90000    89.66277   178.53486     3.81472    90.33723   181.46514     3.81472
    10.00000    89.66277   178.53484     3.81471    90.33723   181.46516     3.81471
    10.10000    89.66276   178.53482     3.81471    90.33724   181.46518     3.81471
    10.20000    89.66275   178.53480     3.81471    90.33725   181.46520     3.81471
    10.30000    89.66275   178.53478     3.81471    90.33725   181.46522     3.81471
    10.40000    89.66274   178.53476     3.81471    90.33726   181.46524     3.81471
    10.50000    89.66274   178.53474     3.81471    90.33726   181.46526     3.81471
    10.60000    89.66273   178.53472     3.81471    90.33727   181.46528     3.81471
    10.70000    89.66273   178.53470     3.81471    90.33727   181.46530     3.81471
    10.80000    89.66272   178.53467     3.81470    90.33728   181.46533     3.81470
    10.90000    89.66272   178.53465     3.81470    90.33728   181.46535     3.81470
    11.00000    89.66271   178.53463     3.81470    90.33729   181.46537     3.81470
    11.10000    89.66270   178.53461     3.81470    90.33730   181.46539     3.81470
    11.20000    89.66270   178.53459     3.81470    90.33730   181.46541     3.81470
    11.30000    89.66269   178.53457     3.81470    90.33731   181.46543     3.81470
    11.40000    89.66269   178.53455     3.81470    90.33731   181.46545     3.81470
    11.50000    89.66268   178.53453     3.81469    90.33732   181.46547     3.81469
    11.60000    89.66268   178.53451     3.81469    90.33732   181.46549     3.81469
    11.70000    89.66267   178.53449     3.81469    90.33733   181.46551     3.81469
    11.80000    89.66267   178.53447     3.81469    90.33733   181.46553     3.81469
    11.90000    89.66266   178.53445     3.81469    90.33734   181.46555     3.81469
    12.00000    89.66265   178.53443     3.81469    90.33735   181.46557     3.81469
    12.10000    89.66265   178.53441     3.81468    90.33735   181.46559     3.81468
    12.20000    89.66264   178.53439     3.81468    90.33736   181.46561     3.81468
    12.30000    89.66264   178.53437     3.81468    90.33736   181.46563     3.81468
    12.40000    89.66263   178.53435     3.81468    90.33737   181.46565     3.81468
    12.50000    89.66263   178.53432     3.81468    90.33737   181.46568     3.81468
    12.60000    89.66262   178.53430     3.81468    90.33738   181.46570     3.81468
    12.70000    89.66261   178.53428     3.81467    90.33739   181.46572     3.81467
    12.80000    89.66261   178.53426     3.81467    90.33739   181.46574     3.81467
    12.90000    89.66260   178.53424     3.81467    90.33740   181.46576     3.81467
    13.00000    89.66260   178.53422     3.81467    90.33740   181.46578     3.81467
    13.10000    89.66259   178.53420     3.81467    90.33741   181.46580     3.81467
    13.20000    89.66259   178.53418     3.81466    90.33741   181.46582     3.81466
    13.30000    89.66258   178.53416     3.81466    90.33742   181.46584     3.81466
    13.40000    89.66258   178.53414     3.81466    90.33742   181.46586     3.81466
    13.50000    89.66257   178.53412     3.81466    90.33743   181.46588     3.81466
    13.60000    89.66256   178.53410     3.81466    90.33744   181.46590     3.81466
    13.70000    89.66256   178.53408     3.81466    90.33744   181.46592     3.81466
    13.80000    89.66255   178.53406     3.81465    90.33745   181.46594     3.81465
    13.90000    89.66255   178.53403     3.81465    90.33745   181.46597     3.81465
    14.00000    89.66254   178.53401     3.81465    90.33746   181.46599     3.81465
    14.10000    89.66254   178.53399     3.81465    90.33746   181.46601     3.81465
    14.20000    89.66253   178.53397     3.81465    90.33747   181.46603     3.81465
    14.30000    89.66253   178.53395     3.81464    90.33747   181.46605     3.81464
    14.40000    89.66252   178.53393     3.81464    90.33748   181.46607     3.81464
    14.50000    89.66251   178.53391     3.81464    90.33749   181.46609     3.81464
    14.60000    89.66251   178.53389     3.81464    90.33749   181.46611     3.81464
    14.70000    89.66250   178.53387     3.81463    90.33750   181.46613     3.81463
    14.80000    89.66250   178.53385     3.81463    90.33750   181.46615     3.81463
    14.90000    89.66249   178.53383     3.81463    90.33751   181.46617     3.81463
    15.00000    89.66249   178.53381     3.81463    90.33751   181.46619     3.81463
    15.10000    89.66248   178.53379     3.81463    90.33752   181.46621     3.81463
    15.20000    89.66247   178.53376     3.81462    90.33753   181.46624     3.81462
    15.30000    89.66247   178.53374     3.81462    90.33753   181.46626     3.81462
    15.40000    89.66246   178.53372     3.81462    90.33754   181.46628     3.81462
    15.50000    89.66246   178.53370     3.81462    90.33754   181.46630     3.81462
    15.60000    89.66245   178.53368     3.81461    90.33755   181.46632     3.81461
    15.70000    89.66245   178.53366     3.81461    90.33755   181.46634     3.81461
    15.80000    89.66244   178.53364     3.81461    90.33756   181.46636     3.81461
    15.90000    89.66244   178.53362     3.81461    90.33756   181.46638     3.81461
    16.00000    89.66243   178.53360     3.81460    90.33757   181.46640     3.81460
    16.10000    89.66242   178.53358     3.81460    90.33758   181.46642     3.81460
    16.20000    89.66242   178.53356     3.81460    90.33758   181.46644     3.81460
    16.30000    89.66241   178.53353     3.81460    90.33759   181.46647     3.81460
    16.40000    89.66241   178.53351     3.81459    90.33759   181.46649     3.81459
    16.50000    89.66240   178.53349     3.81459    90.33760   181.46651     3.81459
    16.60000    89.66240   178.53347     3.81459    90.33760   181.46653     3.81459
    16.70000    89.66239   178.53345     3.81459    90.33761   181.46655     3.81459
    16.80000    89.66238   178.53343     3.81458    90.33762   181.46657     3.81458
    16.90000    89.66238   178.53341     3.81458    90.33762   181.46659     3.81458
    17.00000    89.66237   178.53339     3.81458    90.33763   181.46661     3.81458
    17.10000    89.66237   178.53337     3.81458    90.33763   181.46663     3.81458
    17.20000    89.66236   178.53335     3.81457    90.33764   181.46665     3.81457
    17.30000    89.66236   178.53333     3.81457    90.33764   181.46667     3.81457
    17.40000    89.66235   178.53330     3.81457    90.33765   181.46670     3.81457
    17.50000    89.66235   178.53328     3.81457    90.33765   181.46672     3.81457
    17.60000    89.66234   178.53326     3.81456    90.33766   181.46674     3.81456
    17.70000    89.66233   178.53324     3.81456    90.33767   181.46676     3.81456
    17.80000    89.66233   178.53322     3.81456    90.33767   181.46678     3.81456
    17.90000    89.66232   178.53320     3.81456    90.33768   181.46680     3.81456
    18.00000    89.66232   178.53318     3.81455    90.33768   181.46682     3.81455
    18.10000    89.66231   178.53316     3.81455    90.33769   181.46684     3.81455
    18.20000    89.66231   178.53314     3.81455    90.33769   181.46686     3.81455
    18.30000    89.66230   178.53312     3.81454    90.33770   181.46688     3.81454
    18.40000    89.66229   178.53309     3.81454    90.33771   181.46691     3.81454
    18.50000    89.66229   178.53307     3.81454    90.33771   181.46693     3.81454
    18.60000    89.66228   178.53305     3.81454    90.33772   181.46695     3.81454
    18.70000    89.66228   178.53303     3.81453    90.33772   181.46697     3.81453
    18.80000    89.66227   178.53301     3.81453    90.33773   181.46699     3.81453
    18.90000    89.66227   178.53299     3.81453    90.33773   181.46701     3.81453
    19.00000    89.66226   178.53297     3.81452    90.33774   181.46703     3.81452
    19.10000    89.66225   178.53295     3.81452    90.33775   181.46705     3.81452
    19.20000    89.66225   178.53293     3.81452    90.33775   181.46707     3.81452
    19.30000    89.66224   178.53290     3.81451    90.33776   181.46710     3.81451
    19.40000    89.66224   178.53288     3.81451    90.33776   181.46712     3.81451
    19.50000    89.66223   178.53286     3.81451    90.33777   181.46714     3.81451
    19.60000    89.66223   178.53284     3.81450    90.33777   181.46716     3.81450
    19.70000    89.66222   178.53282     3.81450    90.33778   181.46718     3.81450
    19.80000    89.66221   178.53280     3.81450    90.33779   181.46720     3.81450
    19.90000    89.66221   178.53278     3.81450    90.33779   181.46722     3.81450
    20.00000    89.66220   178.53276     3.81449    90.33780   181.46724     3.81449
    20.10000    89.66220   178.53274     3.81449    90.33780   181.46726     3.81449
    20.20000    89.66219   178.53271     3.81449    90.33781   181.46729     3.81449
    20.30000    89.66219   178.53269     3.81448    90.33781   181.46731     3.81448
    20.40000    89.66218   178.53267     3.81448    90.33782   181.46733     3.81448
    20.50000    89.66218   178.53265     3.81448    90.33782   181.46735     3.81448
    20.60000    89.66217   178.53263     3.81447    90.33783   181.46737     3.81447
    20.70000    89.66216   178.53261     3.81447    90.33784   181.46739     3.81447
    20.80000    89.66216   178.53259     3.81447    90.33784   181.46741     3.81447
    20.90000    89.66215   178.53257     3.81446    90.33785   181.46743     3.81446
    21.00000    89.66215   178.53254     3.81446    90.33785   181.46746     3.81446
    21.10000    89.66214   178.53252     3.81446    90.33786   181.46748     3.81446
    21.20000    89.66214   178.53250     3.81445    90.33786   181.46750     3.81445
    21.30000    89.66213   178.53248     3.81445    90.33787   181.46752     3.81445
    21.40000    89.66212   178.53246     3.81445    90.33788   181.46754     3.81445
    21.50000    89.66212   178.53244     3.81444    90.33788   181.46756     3.81444
    21.60000    89.66211   178.53242     3.81444    90.33789   181.46758     3.81444
    21.70000    89.66211   178.53240     3.81443    90.33789   181.46760     3.81443
    21.80000    89.66210   178.53237     3.81443    90.33790   181.46763     3.81443
    21.90000    89.66210   178.53235     3.81443    90.33790   181.46765     3.81443
    22.00000    89.66209   178.53233     3.81442    90.33791   181.46767     3.81442
    22.10000    89.66208   178.53231     3.81442    90.33792   181.46769     3.81442
    22.20000    89.66208   178.53229     3.81442    90.33792   181.46771     3.81442
    22.30000    89.66207   178.53227     3.81441    90.33793   181.46773     3.81441
    22.40000    89.66207   178.53225     3.81441    90.33793   181.46775     3.81441
    22.50000    89.66206   178.53223     3.81441    90.33794   181.46777     3.81441
    22.60000    89.66206   178.53220     3.81440    90.33794   181.46780     3.81440
    22.70000    89.66205   178.53218     3.81440    90.33795   181.46782     3.81440
    22.80000    89.66204   178.53216     3.81439    90.33796   181.46784     3.81439
    22.90000    89.66204   178.53214     3.81439    90.33796   181.46786     3.81439
    23.00000    89.66203   178.53212     3.81439    90.33797   181.46788     3.81439
    23.10000    89.66203   178.53210     3.81438    90.33797   181.46790     3.81438
    23.20000    89.66202   178.53208     3.81438    90.33798   181.46792     3.81438
    23.30000    89.66202   178.53205     3.81438    90.33798   181.46795     3.81438
    23.40000    89.66201   178.53203     3.81437    90.33799   181.46797     3.81437
    23.50000    89.66200   178.53201     3.81437    90.33800   181.46799     3.81437
    23.60000    89.66200   178.53199     3.81436    90.33800   181.46801     3.81436
    23.70000    89.66199   178.53197     3.81436    90.33801   181.46803     3.81436
    23.80000    89.66199   178.53195     3.81436    90.33801   181.46805     3.81436
    23.90000    89.66198   178.53193     3.81435    90.33802   181.46807     3.81435
    24.00000    89.66198   178.53190     3.81435    90.33802   181.46810     3.81435
    24.10000    89.66197   178.53188     3.81434    90.33803   181.46812     3.81434
    24.20000    89.66196   178.53186     3.81434    90.33804   181.46814     3.81434
    24.30000    89.66196   178.53184     3.81434    90.33804   181.46816     3.81434
    24.40000    89.66195   178.53182     3.81433    90.33805   181.46818     3.81433
    24.50000    89.66195   178.53180     3.81433    90.33805   181.46820     3.81433
    24.60000    89.66194   178.53178     3.81432    90.33806   181.46822     3.81432
    24.70000    89.66193   178.53175     3.81432    90.33807   181.46825     3.81432
    24.80000    89.66193   178.53173     3.81432    90.33807   181.46827     3.81432
    24.90000    89.66192   178.53171     3.81431    90.33808   181.46829     3.81431
    25.00000    89.66192   178.53169     3.81431    90.33808   181.46831     3.81431
    25.10000    89.66191   178.53167     3.81430    90.33809   181.46833     3.81430
    25.20000    89.66191   178.53165     3.81430    90.33809   181.46835     3.81430
    25.30000    89.66190   178.53162     3.81429    90.33810   181.46838     3.81429
    25.40000    89.66189   178.53160     3.81429    90.33811   181.46840     3.81429
    25.50000    89.66189   178.53158     3.81429    90.33811   181.46842     3.81429
    25.60000    89.66188   178.53156     3.81428    90.33812   181.46844     3.81428
    25.70000    89.66188   178.53154     3.81428    90.33812   181.46846     3.81428
    25.80000    89.66187   178.53152     3.81427    90.33813   181.46848     3.81427
    25.90000    89.66187   178.53150     3.81427    90.33813   181.46850     3.81427
    26.00000    89.66186   178.53147     3.81426    90.33814   181.46853     3.81426
    26.10000    89.66185   178.53145     3.81426    90.33815   181.46855     3.81426
    26.20000    89.66185   178.53143     3.81426    90.33815   181.46857     3.81426
    26.30000    89.66184   178.53141     3.81425    90.33816   181.46859     3.81425
    26.40000    89.66184   178.53139     3.81425    90.33816   181.46861     3.81425
    26.50000    89.66183   178.53137     3.81424    90.33817   181.46863     3.81424
    26.60000    89.66183   178.53134     3.81424    90.33817   181.46866     3.81424
    26.70000    89.66182   178.53132     3.81423    90.33818   181.46868     3.81423
    26.80000    89.66181   178.53130     3.81423    90.33819   181.46870     3.81423
    26.90000    89.66181   178.53128     3.81422    90.33819   181.46872     3.81422
    27.00000    89.66180   178.53126     3.81422    90.33820   181.46874     3.81422
    27.10000    89.66180   178.53124     3.81421    90.33820   181.46876     3.81421
    27.20000    89.66179   178.53121     3.81421    90.33821   181.46879     3.81421
    27.30000    89.66178   178.53119     3.81421    90.33822   181.46881     3.81421
    27.40000    89.66178   178.53117     3.81420    90.33822   181.46883     3.81420
    27.50000    89.66177   178.53115     3.81420    90.33823   181.46885     3.81420
    27.60000    89.66177   178.53113     3.81419    90.33823   181.46887     3.81419
    27.70000    89.66176   178.53111     3.81419    90.33824   181.46889     3.81419
    27.80000    89.66176   178.53108     3.81418    90.33824   181.46892     3.81418
    27.90000    89.66175   178.53106     3.81418    90.33825   181.46894     3.81418
    28.00000    89.66174   178.53104     3.81417    90.33826   181.46896     3.81417
    28.10000    89.66174   178.53102     3.81417    90.33826   181.46898     3.81417
    28.20000    89.66173   178.53100     3.81416    90.33827   181.46900     3.81416
    28.30000    89.66173   178.53098     3.81416    90.33827   181.46902     3.81416
    28.40000    89.66172   178.53095     3.81415    90.33828   181.46905     3.81415
    28.50000    89.66172   178.53093     3.81415    90.33828   181.46907     3.81415
    28.60000    89.66171   178.53091     3.81414    90.33829   181.46909     3.81414
    28.70000    89.66170   178.53089     3.81414    90.33830   181.46911     3.81414
    28.80000    89.66170   178.53087     3.81413    90.33830   181.46913     3.81413
    28.90000    89.66169   178.53084     3.81413    90.33831   181.46916     3.81413
    29.00000    89.66169   178.53082     3.81412    90.33831   181.46918     3.81412
    29.10000    89.66168   178.53080     3.81412    90.33832   181.46920     3.81412
    29.20000    89.66167   178.53078     3.81411    90.33833   181.46922     3.81411
    29.30000    89.66167   178.53076     3.81411    90.33833   181.46924     3.81411
    29.40000    89.66166   178.53074     3.81410    90.33834   181.46926     3.81410
    29.50000    89.66166   178.53071     3.81410    90.33834   181.46929     3.81410
    29.60000    89.66165   178.53069     3.81409    90.33835   181.46931     3.81409
    29.70000    89.66165   178.53067     3.81409    90.33835   181.46933     3.81409
    29.80000    89.66164   178.53065     3.81408    90.33836   181.46935     3.81408
    29.90000    89.66163   178.53063     3.81408    90.33837   181.46937     3.81408
    30.00000    89.66163   178.53060     3.81407    90.33837   181.46940     3.81407
    30.10000    89.66162   178.53058     3.81407    90.33838   181.46942     3.81407
    30.20000    89.66162   178.53056     3.81406    90.33838   181.46944     3.81406
    30.30000    89.66161   178.53054     3.81406    90.33839   181.46946     3.81406
    30.40000    89.66160   178.53052     3.81405    90.33840   181.46948     3.81405
    30.50000    89.66160   178.53049     3.81405    90.33840   181.46951     3.81405
    30.60000    89.66159   178.53047     3.81404    90.33841   181.46953     3.81404
    30.70000    89.66159   178.53045     3.81404    90.33841   181.46955     3.81404
    30.80000    89.66158   178.53043     3.81403    90.33842   181.46957     3.81403
    30.90000    89.66158   178.53041     3.81403    90.33842   181.46959     3.81403
    31.00000    89.66157   178.53039     3.81402    90.33843   181.46961     3.81402
    31.10000    89.66156   178.53036     3.81401    90.33844   181.46964     3.81401
    31.20000    89.66156   178.53034     3.81401    90.33844   181.46966     3.81401
    31.30000    89.66155   178.53032     3.81400    90.33845   181.46968     3.81400
    31.40000    89.66155   178.53030     3.81400    90.33845   181.46970     3.81400
    31.50000    89.66154   178.53028     3.81399    90.33846   181.46972     3.81399
    31.60000    89.66153   178.53025     3.81399    90.33847   181.46975     3.81399
    31.70000    89.66153   178.53023     3.81398    90.33847   181.46977     3.81398
    31.80000    89.66152   178.53021     3.81398    90.33848   181.46979     3.81398
    31.90000    89.66152   178.53019     3.81397    90.33848   181.46981     3.81397
    32.00000    89.66151   178.53017     3.81397    90.33849   181.46983     3.81397
    32.10000    89.66151   178.53014     3.81396    90.33849   181.46986     3.81396
    32.20000    89.66150   178.53012     3.81395    90.33850   181.46988     3.81395
    32.30000    89.66149   178.53010     3.81395    90.33851   181.46990     3.81395
    32.40000    89.66149   178.53008     3.81394    90.33851   181.46992     3.81394
    32.50000    89.66148   178.53006     3.81394    90.33852   181.46994     3.81394
    32.60000    89.66148   178.53003     3.81393    90.33852   181.46997     3.81393
    32.70000    89.66147   178.53001     3.81393    90.33853   181.46999     3.81393
    32.80000    89.66146   178.52999     3.81392    90.33854   181.47001     3.81392
    32.90000    89.66146   178.52997     3.81391    90.33854   181.47003     3.81391
    33.00000    89.66145   178.52994     3.81391    90.33855   181.47006     3.81391
    33.10000    89.66145   178.52992     3.81390    90.33855   181.47008     3.81390
    33.20000    89.66144   178.52990     3.81390    90.33856   181.47010     3.81390
    33.30000    89.66143   178.52988     3.81389    90.33857   181.47012     3.81389
    33.40000    89.66143   178.52986     3.81389    90.33857   181.47014     3.81389
    33.50000    89.66142   178.52983     3.81388    90.33858   181.47017     3.81388
    33.60000    89.66142   178.52981     3.81387    90.33858   181.47019     3.81387
    33.70000    89.66141   178.52979     3.81387    90.33859   181.47021     3.81387
    33.80000    89.66141   178.52977     3.81386    90.33859   181.47023     3.81386
    33.90000    89.66140   178.52975     3.81386    90.33860   181.47025     3.81386
    34.00000    89.66139   178.52972     3.81385    90.33861   181.47028     3.81385
    34.10000    89.66139   178.52970     3.81384    90.33861   181.47030     3.81384
    34.20000    89.66138   178.52968     3.81384    90.33862   181.47032     3.81384
    34.30000    89.66138   178.52966     3.81383    90.33862   181.47034     3.81383
    34.40000    89.66137   178.52963     3.81383    90.33863   181.47037     3.81383
    34.50000    89.66136   178.52961     3.81382    90.33864   181.47039     3.81382
    34.60000    89.66136   178.52959     3.81381    90.33864   181.47041     3.81381
    34.70000    89.66135   178.52957     3.81381    90.33865   181.47043     3.81381
    34.80000    89.66135   178.52955     3.81380    90.33865   181.47045     3.81380
    34.90000    89.66134   178.52952     3.81380    90.33866   181.47048     3.81380
    35.00000    89.66133   178.52950     3.81379    90.33867   181.47050     3.81379
    35.10000    89.66133   178.52948     3.81378    90.33867   181.47052     3.81378
    35.20000    89.66132   178.52946     3.81378    90.33868   181.47054     3.81378
    35.30000    89.66132   178.52943     3.81377    90.33868   181.47057     3.81377
    35.40000    89.66131   178.52941     3.81376    90.33869   181.47059     3.81376
    35.50000    89.66131   178.52939     3.81376    90.33869   181.47061     3.81376
    35.60000    89.66130   178.52937     3.81375    90.33870   181.47063     3.81375
    35.70000    89.66129   178.52934     3.81375    90.33871   181.47066     3.81375
    35.80000    89.66129   178.52932     3.81374    90.33871   181.47068     3.81374
    35.90000    89.66128   178.52930     3.81373    90.33872   181.47070     3.81373
    36.00000    89.66128   178.52928     3.81373    90.33872   181.47072     3.81373
    36.10000    89.66127   178.52926     3.81372    90.33873   181.47074     3.81372
    36.20000    89.66126   178.52923     3.81371    90.33874   181.47077     3.81371
    36.30000    89.66126   178.52921     3.81371    90.33874   181.47079     3.81371
    36.40000    89.66125   178.52919     3.81370    90.33875   181.47081     3.81370
    36.50000    89.66125   178.52917     3.81370    90.33875   181.47083     3.81370
    36.60000    89.66124   178.52914     3.81369    90.33876   181.47086     3.81369
    36.70000    89.66123   178.52912     3.81368    90.33877   181.47088     3.81368
    36.80000    89.66123   178.52910     3.81368    90.33877   181.47090     3.81368
    36.90000    89.66122   178.52908     3.81367    90.33878   181.47092     3.81367
    37.00000    89.66122   178.52905     3.81366    90.33878   181.47095     3.81366
    37.10000    89.66121   178.52903     3.81366    90.33879   181.47097     3.81366
    37.20000    89.66120   178.52901     3.81365    90.33880   181.47099     3.81365
    37.30000    89.66120   178.52899     3.81364    90.33880   181.47101     3.81364
    37.40000    89.66119   178.52896     3.81364    90.33881   181.47104     3.81364
    37.50000    89.66119   178.52894     3.81363    90.33881   181.47106     3.81363
    37.60000    89.66118   178.52892     3.81362    90.33882   181.47108     3.81362
    37.70000    89.66117   178.52890     3.81362    90.33883   181.47110     3.81362
    37.80000    89.66117   178.52887     3.81361    90.33883   181.47113     3.81361
    37.90000    89.66116   178.52885     3.81360    90.33884   181.47115     3.81360
    38.00000    89.66116   178.52883     3.81360    90.33884   181.47117     3.81360
    38.10000    89.66115   178.52881     3.81359    90.33885   181.47119     3.81359
    38.20000    89.66114   178.52878     3.81358    90.33886   181.47122     3.81358
    38.30000    89.66114   178.52876     3.81358    90.33886   181.47124     3.81358
    38.40000    89.66113   178.52874     3.81357    90.33887   181.47126     3.81357
    38.50000    89.66113   178.52872     3.81356    90.33887   181.47128     3.81356
    38.60000    89.66112   178.52869     3.81356    90.33888   181.47131     3.81356
    38.70000    89.66112   178.52867     3.81355    90.33888   181.47133     3.81355
    38.80000    89.66111   178.52865     3.81354    90.33889   181.47135     3.81354
    38.90000    89.66110   178.52863     3.81353    90.33890   181.47137     3.81353
    39.00000    89.66110   178.52860     3.81353    90.33890   181.47140     3.81353
    39.10000    89.66109   178.52858     3.81352    90.33891   181.47142     3.81352
    39.20000    89.66109   178.52856     3.81351    90.33891   181.47144     3.81351
    39.30000    89.66108   178.52854     3.81351    90.33892   181.47146     3.81351
    39.40000    89.66107   178.52851     3.81350    90.33893   181.47149     3.81350
    39.50000    89.66107   178.52849     3.81349    90.33893   181.47151     3.81349
    39.60000    89.66106   178.52847     3.81349    90.33894   181.47153     3.81349
    39.70000    89.66106   178.52845     3.81348    90.33894   181.47155     3.81348
    39.80000    89.66105   178.52842     3.81347    90.33895   181.47158     3.81347
    39.90000    89.66104   178.52840     3.81346    90.33896   181.47160     3.81346
    40.00000    89.66104   178.52838     3.81346    90.33896   181.47162     3.81346
