 # applied field (T), theta (degree), phi (degree), abs [muB/unitcell], abs [T]
       0.00000000       0.00000000       0.00000000      35.70512208       1.19361512
       0.10000000       0.39843764      45.00000000      35.70511219       1.19361479
       0.20000000       0.79687588      45.00000000      35.70508253       1.19361380
       0.30000000       1.19531532      45.00000000      35.70503310       1.19361215
       0.40000000       1.59375656      45.00000000      35.70496392       1.19360983
       0.50000000       2.04901536      45.00000000      35.70485941       1.19360634
       0.60000000       2.44746252      45.00000000      35.70474771       1.19360261
       0.70000000       2.84591337      45.00000000      35.70461632       1.19359821
       0.80000000       3.24436851      45.00000000      35.70446528       1.19359316
       0.90000000       3.64282854      45.00000000      35.70429463       1.19358746
       1.00000000       4.04129406      45.00000000      35.70410439       1.19358110
       1.10000000       4.43976565      45.00000000      35.70389462       1.19357409
       1.20000000       4.83824392      45.00000000      35.70366537       1.19356642
       1.30000000       5.29355130      45.00000000      35.70337630       1.19355676
       1.40000000       5.69204592      45.00000000      35.70310524       1.19354770
       1.50000000       6.09054907      45.00000000      35.70281490       1.19353799
       1.60000000       6.48906133      45.00000000      35.70250533       1.19352764
       1.70000000       6.88758329      45.00000000      35.70217662       1.19351665
       1.80000000       7.28611554      45.00000000      35.70182883       1.19350503
       1.90000000       7.68465864      45.00000000      35.70146205       1.19349277
       2.00000000       8.14004576      45.00000000      35.70101469       1.19347781
       2.10000000       8.53861417      45.00000000      35.70060728       1.19346419
       2.20000000       8.93719524      45.00000000      35.70018117       1.19344995
       2.30000000       9.33578955      45.00000000      35.69973647       1.19343508
       2.40000000       9.73439765      45.00000000      35.69927328       1.19341960
       2.50000000      10.18986314      45.00000000      35.69871510       1.19340094
       2.60000000      10.58850281      45.00000000      35.69821243       1.19338413
       2.70000000      10.98715803      45.00000000      35.69769162       1.19336672
       2.80000000      11.38582936      45.00000000      35.69715281       1.19334871
       2.90000000      11.78451733      45.00000000      35.69659613       1.19333010
       3.00000000      12.24007821      45.00000000      35.69593062       1.19330785
       3.10000000      12.63880381      45.00000000      35.69533584       1.19328797
       3.20000000      13.03754776      45.00000000      35.69472361       1.19326750
       3.30000000      13.43631059      45.00000000      35.69409407       1.19324646
       3.40000000      13.89196029      45.00000000      35.69334503       1.19322142
       3.50000000      14.29076547      45.00000000      35.69267868       1.19319914
       3.60000000      14.68959116      45.00000000      35.69199552       1.19317630
       3.70000000      15.08843787      45.00000000      35.69129569       1.19315291
       3.80000000      15.54418671      45.00000000      35.69046612       1.19312518
       3.90000000      15.94308033      45.00000000      35.68973092       1.19310060
       4.00000000      16.34199654      45.00000000      35.68897958       1.19307548
       4.10000000      16.79782727      45.00000000      35.68809105       1.19304578
       4.20000000      17.19679372      45.00000000      35.68730552       1.19301952
       4.30000000      17.59578429      45.00000000      35.68650442       1.19299274
       4.40000000      18.05170244      45.00000000      35.68555897       1.19296113
       4.50000000      18.45074647      45.00000000      35.68472492       1.19293325
       4.60000000      18.90672737      45.00000000      35.68374181       1.19290038
       4.70000000      19.30582698      45.00000000      35.68287571       1.19287143
       4.80000000      19.70495315      45.00000000      35.68199507       1.19284199
       4.90000000      20.16103032      45.00000000      35.68095875       1.19280735
       5.00000000      20.56021508      45.00000000      35.68004743       1.19277688
       5.10000000      21.01636084      45.00000000      35.67897608       1.19274107
       5.20000000      21.41560617      45.00000000      35.67803505       1.19270961
       5.30000000      21.87182277      45.00000000      35.67692981       1.19267266
       5.40000000      22.27113059      45.00000000      35.67596006       1.19264024
       5.50000000      22.72742020      45.00000000      35.67482209       1.19260220
       5.60000000      23.12679236      45.00000000      35.67382465       1.19256885
       5.70000000      23.58315707      45.00000000      35.67265514       1.19252976
       5.80000000      24.03956281      45.00000000      35.67146919       1.19249011
       5.90000000      24.43903721      45.00000000      35.67043125       1.19245541
       6.00000000      24.89552112      45.00000000      35.66921564       1.19241478
       6.10000000      25.29506426      45.00000000      35.66815273       1.19237924
       6.20000000      25.75162825      45.00000000      35.66690874       1.19233766
       6.30000000      26.20823586      45.00000000      35.66565000       1.19229558
       6.40000000      26.66488759      45.00000000      35.66437691       1.19225302
       6.50000000      27.06457807      45.00000000      35.66326574       1.19221587
       6.60000000      27.52131356      45.00000000      35.66196694       1.19217245
       6.70000000      27.97809455      45.00000000      35.66065487       1.19212859
       6.80000000      28.43492152      45.00000000      35.65932990       1.19208430
       6.90000000      28.83476563      45.00000000      35.65817542       1.19204570
       7.00000000      29.29167967      45.00000000      35.65682754       1.19200064
       7.10000000      29.74864093      45.00000000      35.65546788       1.19195519
       7.20000000      30.20564982      45.00000000      35.65409684       1.19190936
       7.30000000      30.66270673      45.00000000      35.65271482       1.19186316
       7.40000000      31.11981205      45.00000000      35.65132222       1.19181660
       7.50000000      31.57696614      45.00000000      35.64991944       1.19176971
       7.60000000      32.03416936      45.00000000      35.64850689       1.19172249
       7.70000000      32.49142205      45.00000000      35.64708497       1.19167495
       7.80000000      32.94872454      45.00000000      35.64565409       1.19162712
       7.90000000      33.40607715      45.00000000      35.64421467       1.19157900
       8.00000000      33.86348016      45.00000000      35.64276711       1.19153061
       8.10000000      34.32093387      45.00000000      35.64131184       1.19148196
       8.20000000      34.83555242      45.00000000      35.63964796       1.19142633
       8.30000000      35.29311514      45.00000000      35.63817746       1.19137718
       8.40000000      35.75072935      45.00000000      35.63670054       1.19132780
       8.50000000      36.26553062      45.00000000      35.63501323       1.19127140
       8.60000000      36.72325542      45.00000000      35.63352386       1.19122161
       8.70000000      37.18103238      45.00000000      35.63202940       1.19117165
       8.80000000      37.69601877      45.00000000      35.63032329       1.19111461
       8.90000000      38.15390761      45.00000000      35.62881920       1.19106433
       9.00000000      38.66902116      45.00000000      35.62710290       1.19100696
       9.10000000      39.12702256      45.00000000      35.62559109       1.19095642
       9.20000000      39.64226402      45.00000000      35.62386676       1.19089877
       9.30000000      40.15757366      45.00000000      35.62213896       1.19084101
       9.40000000      40.61574849      45.00000000      35.62061897       1.19079020
       9.50000000      41.13118687      45.00000000      35.61888646       1.19073228
       9.60000000      41.64669379      45.00000000      35.61715224       1.19067431
       9.70000000      42.16226933      45.00000000      35.61541691       1.19061629
       9.80000000      42.67791354      45.00000000      35.61368107       1.19055827
       9.90000000      43.19362646      45.00000000      35.61194534       1.19050024
      10.00000000      43.70940809      45.00000000      35.61021033       1.19044224
      10.10000000      44.22525842      45.00000000      35.60847663       1.19038428
      10.20000000      44.74117740      45.00000000      35.60674486       1.19032639
      10.30000000      45.31444108      45.00000000      35.60480369       1.19026150
      10.40000000      45.83050527      45.00000000      35.60307777       1.19020380
      10.50000000      46.34663784      45.00000000      35.60135564       1.19014623
      10.60000000      46.92014003      45.00000000      35.59942682       1.19008175
      10.70000000      47.43641702      45.00000000      35.59771449       1.19002451
      10.80000000      48.01008036      45.00000000      35.59579765       1.18996043
      10.90000000      48.58382841      45.00000000      35.59388820       1.18989659
      11.00000000      49.15766087      45.00000000      35.59198697       1.18983304
      11.10000000      49.73157740      45.00000000      35.59009475       1.18976978
      11.20000000      50.30557760      45.00000000      35.58821236       1.18970685
      11.30000000      50.87966108      45.00000000      35.58634058       1.18964428
      11.40000000      51.45382738      45.00000000      35.58448021       1.18958209
      11.50000000      52.02807602      45.00000000      35.58263205       1.18952030
      11.60000000      52.65979690      45.00000000      35.58059395       1.18945217
      11.70000000      53.23421729      45.00000000      35.57877379       1.18939132
      11.80000000      53.86612695      45.00000000      35.57676805       1.18932427
      11.90000000      54.49813461      45.00000000      35.57478067       1.18925783
      12.00000000      55.13023942      45.00000000      35.57281268       1.18919204
      12.10000000      55.76244044      45.00000000      35.57086506       1.18912694
      12.20000000      56.45218367      45.00000000      35.56874559       1.18905608
      12.30000000      57.08458328      45.00000000      35.56684367       1.18899250
      12.40000000      57.77454194      45.00000000      35.56477609       1.18892338
      12.50000000      58.46461124      45.00000000      35.56273734       1.18885523
      12.60000000      59.15478966      45.00000000      35.56072867       1.18878808
      12.70000000      59.84507558      45.00000000      35.55875131       1.18872198
      12.80000000      60.59297263      45.00000000      35.55662745       1.18865098
      12.90000000      61.34099312      45.00000000      35.55454298       1.18858129
      13.00000000      62.08913477      45.00000000      35.55249941       1.18851298
      13.10000000      62.83739518      45.00000000      35.55049818       1.18844607
      13.20000000      63.64331718      45.00000000      35.54837452       1.18837508
      13.30000000      64.44937232      45.00000000      35.54630316       1.18830584
      13.40000000      65.25555726      45.00000000      35.54428584       1.18823840
      13.50000000      66.11944415      45.00000000      35.54216971       1.18816766
      13.60000000      67.04105957      45.00000000      35.53996945       1.18809410
      13.70000000      67.96283279      45.00000000      35.53784622       1.18802312
      13.80000000      68.88475811      45.00000000      35.53580239       1.18795480
      13.90000000      69.86444683      45.00000000      35.53370538       1.18788469
      14.00000000      70.95955086      45.00000000      35.53144539       1.18780914
      14.10000000      72.05484678      45.00000000      35.52930670       1.18773765
      14.20000000      73.20797319      45.00000000      35.52717733       1.18766646
      14.30000000      74.41894864      45.00000000      35.52508176       1.18759641
      14.40000000      75.80313017      45.00000000      35.52284776       1.18752173
      14.50000000      77.24522884      45.00000000      35.52073823       1.18745121
      14.60000000      78.91832446      45.00000000      35.51854989       1.18737805
      14.70000000      80.88020542      45.00000000      35.51635918       1.18730481
      14.80000000      83.41952996      45.00000000      35.51413622       1.18723050
      14.90000000      87.97956974      45.00000000      35.51193601       1.18715695
      15.00000000      90.00000000      45.00000000      35.51193471       1.18715691
      15.10000000      90.00000000      45.00000000      35.51218995       1.18716544
      15.20000000      90.00000000      45.00000000      35.51244518       1.18717397
      15.30000000      90.00000000      45.00000000      35.51270038       1.18718250
      15.40000000      90.00000000      45.00000000      35.51295557       1.18719103
      15.50000000      90.00000000      45.00000000      35.51321073       1.18719956
      15.60000000      90.00000000      45.00000000      35.51346587       1.18720809
      15.70000000      90.00000000      45.00000000      35.51372098       1.18721662
      15.80000000      90.00000000      45.00000000      35.51397608       1.18722515
      15.90000000      90.00000000      45.00000000      35.51423115       1.18723368
      16.00000000      90.00000000      45.00000000      35.51448620       1.18724220
      16.10000000      90.00000000      45.00000000      35.51474124       1.18725073
      16.20000000      90.00000000      45.00000000      35.51499624       1.18725925
      16.30000000      90.00000000      45.00000000      35.51525123       1.18726778
      16.40000000      90.00000000      45.00000000      35.51550620       1.18727630
      16.50000000      90.00000000      45.00000000      35.51576114       1.18728482
      16.60000000      90.00000000      45.00000000      35.51601606       1.18729334
      16.70000000      90.00000000      45.00000000      35.51627097       1.18730187
      16.80000000      90.00000000      45.00000000      35.51652584       1.18731039
      16.90000000      90.00000000      45.00000000      35.51678070       1.18731891
      17.00000000      90.00000000      45.00000000      35.51703554       1.18732743
      17.10000000      90.00000000      45.00000000      35.51729035       1.18733594
      17.20000000      90.00000000      45.00000000      35.51754515       1.18734446
      17.30000000      90.00000000      45.00000000      35.51779992       1.18735298
      17.40000000      90.00000000      45.00000000      35.51805467       1.18736149
      17.50000000      90.00000000      45.00000000      35.51830940       1.18737001
      17.60000000      90.00000000      45.00000000      35.51856411       1.18737852
      17.70000000      90.00000000      45.00000000      35.51881879       1.18738704
      17.80000000      90.00000000      45.00000000      35.51907346       1.18739555
      17.90000000      90.00000000      45.00000000      35.51932810       1.18740407
      18.00000000      90.00000000      45.00000000      35.51958272       1.18741258
      18.10000000      90.00000000      45.00000000      35.51983732       1.18742109
      18.20000000      90.00000000      45.00000000      35.52009190       1.18742960
      18.30000000      90.00000000      45.00000000      35.52034645       1.18743811
      18.40000000      90.00000000      45.00000000      35.52060099       1.18744662
      18.50000000      90.00000000      45.00000000      35.52085550       1.18745513
      18.60000000      90.00000000      45.00000000      35.52111000       1.18746363
      18.70000000      90.00000000      45.00000000      35.52136447       1.18747214
      18.80000000      90.00000000      45.00000000      35.52161892       1.18748065
      18.90000000      90.00000000      45.00000000      35.52187335       1.18748915
      19.00000000      90.00000000      45.00000000      35.52212775       1.18749766
      19.10000000      90.00000000      45.00000000      35.52238214       1.18750616
      19.20000000      90.00000000      45.00000000      35.52263650       1.18751466
      19.30000000      90.00000000      45.00000000      35.52289085       1.18752317
      19.40000000      90.00000000      45.00000000      35.52314517       1.18753167
      19.50000000      90.00000000      45.00000000      35.52339947       1.18754017
      19.60000000      90.00000000      45.00000000      35.52365375       1.18754867
      19.70000000      90.00000000      45.00000000      35.52390800       1.18755717
      19.80000000      90.00000000      45.00000000      35.52416224       1.18756567
      19.90000000      90.00000000      45.00000000      35.52441646       1.18757417
      20.00000000      90.00000000      45.00000000      35.52467065       1.18758267
      20.10000000      90.00000000      45.00000000      35.52492482       1.18759116
      20.20000000      90.00000000      45.00000000      35.52517897       1.18759966
      20.30000000      90.00000000      45.00000000      35.52543310       1.18760815
      20.40000000      90.00000000      45.00000000      35.52568721       1.18761665
      20.50000000      90.00000000      45.00000000      35.52594130       1.18762514
      20.60000000      90.00000000      45.00000000      35.52619536       1.18763364
      20.70000000      90.00000000      45.00000000      35.52644941       1.18764213
      20.80000000      90.00000000      45.00000000      35.52670343       1.18765062
      20.90000000      90.00000000      45.00000000      35.52695743       1.18765911
      21.00000000      90.00000000      45.00000000      35.52721141       1.18766760
      21.10000000      90.00000000      45.00000000      35.52746537       1.18767609
      21.20000000      90.00000000      45.00000000      35.52771931       1.18768458
      21.30000000      90.00000000      45.00000000      35.52797323       1.18769307
      21.40000000      90.00000000      45.00000000      35.52822712       1.18770156
      21.50000000      90.00000000      45.00000000      35.52848100       1.18771004
      21.60000000      90.00000000      45.00000000      35.52873485       1.18771853
      21.70000000      90.00000000      45.00000000      35.52898869       1.18772702
      21.80000000      90.00000000      45.00000000      35.52924250       1.18773550
      21.90000000      90.00000000      45.00000000      35.52949629       1.18774399
      22.00000000      90.00000000      45.00000000      35.52975006       1.18775247
      22.10000000      90.00000000      45.00000000      35.53000380       1.18776095
      22.20000000      90.00000000      45.00000000      35.53025753       1.18776943
      22.30000000      90.00000000      45.00000000      35.53051124       1.18777792
      22.40000000      90.00000000      45.00000000      35.53076492       1.18778640
      22.50000000      90.00000000      45.00000000      35.53101858       1.18779488
      22.60000000      90.00000000      45.00000000      35.53127223       1.18780335
      22.70000000      90.00000000      45.00000000      35.53152585       1.18781183
      22.80000000      90.00000000      45.00000000      35.53177945       1.18782031
      22.90000000      90.00000000      45.00000000      35.53203303       1.18782879
      23.00000000      90.00000000      45.00000000      35.53228658       1.18783726
      23.10000000      90.00000000      45.00000000      35.53254012       1.18784574
      23.20000000      90.00000000      45.00000000      35.53279364       1.18785422
      23.30000000      90.00000000      45.00000000      35.53304713       1.18786269
      23.40000000      90.00000000      45.00000000      35.53330060       1.18787116
      23.50000000      90.00000000      45.00000000      35.53355406       1.18787964
      23.60000000      90.00000000      45.00000000      35.53380749       1.18788811
      23.70000000      90.00000000      45.00000000      35.53406090       1.18789658
      23.80000000      90.00000000      45.00000000      35.53431429       1.18790505
      23.90000000      90.00000000      45.00000000      35.53456766       1.18791352
      24.00000000      90.00000000      45.00000000      35.53482101       1.18792199
      24.10000000      90.00000000      45.00000000      35.53507433       1.18793046
      24.20000000      90.00000000      45.00000000      35.53532764       1.18793893
      24.30000000      90.00000000      45.00000000      35.53558092       1.18794739
      24.40000000      90.00000000      45.00000000      35.53583419       1.18795586
      24.50000000      90.00000000      45.00000000      35.53608743       1.18796433
      24.60000000      90.00000000      45.00000000      35.53634065       1.18797279
      24.70000000      90.00000000      45.00000000      35.53659385       1.18798126
      24.80000000      90.00000000      45.00000000      35.53684703       1.18798972
      24.90000000      90.00000000      45.00000000      35.53710019       1.18799818
      25.00000000      90.00000000      45.00000000      35.53735333       1.18800664
      25.10000000      90.00000000      45.00000000      35.53760645       1.18801511
      25.20000000      90.00000000      45.00000000      35.53785954       1.18802357
      25.30000000      90.00000000      45.00000000      35.53811262       1.18803203
      25.40000000      90.00000000      45.00000000      35.53836567       1.18804049
      25.50000000      90.00000000      45.00000000      35.53861871       1.18804895
      25.60000000      90.00000000      45.00000000      35.53887172       1.18805740
      25.70000000      90.00000000      45.00000000      35.53912471       1.18806586
      25.80000000      90.00000000      45.00000000      35.53937768       1.18807432
      25.90000000      90.00000000      45.00000000      35.53963063       1.18808277
      26.00000000      90.00000000      45.00000000      35.53988356       1.18809123
      26.10000000      90.00000000      45.00000000      35.54013647       1.18809968
      26.20000000      90.00000000      45.00000000      35.54038936       1.18810814
      26.30000000      90.00000000      45.00000000      35.54064222       1.18811659
      26.40000000      90.00000000      45.00000000      35.54089507       1.18812504
      26.50000000      90.00000000      45.00000000      35.54114790       1.18813350
      26.60000000      90.00000000      45.00000000      35.54140070       1.18814195
      26.70000000      90.00000000      45.00000000      35.54165348       1.18815040
      26.80000000      90.00000000      45.00000000      35.54190625       1.18815885
      26.90000000      90.00000000      45.00000000      35.54215899       1.18816730
      27.00000000      90.00000000      45.00000000      35.54241171       1.18817575
      27.10000000      90.00000000      45.00000000      35.54266441       1.18818419
      27.20000000      90.00000000      45.00000000      35.54291709       1.18819264
      27.30000000      90.00000000      45.00000000      35.54316975       1.18820109
      27.40000000      90.00000000      45.00000000      35.54342239       1.18820953
      27.50000000      90.00000000      45.00000000      35.54367501       1.18821798
      27.60000000      90.00000000      45.00000000      35.54392760       1.18822642
      27.70000000      90.00000000      45.00000000      35.54418018       1.18823487
      27.80000000      90.00000000      45.00000000      35.54443274       1.18824331
      27.90000000      90.00000000      45.00000000      35.54468527       1.18825175
      28.00000000      90.00000000      45.00000000      35.54493779       1.18826019
      28.10000000      90.00000000      45.00000000      35.54519028       1.18826863
      28.20000000      90.00000000      45.00000000      35.54544275       1.18827707
      28.30000000      90.00000000      45.00000000      35.54569521       1.18828551
      28.40000000      90.00000000      45.00000000      35.54594764       1.18829395
      28.50000000      90.00000000      45.00000000      35.54620005       1.18830239
      28.60000000      90.00000000      45.00000000      35.54645244       1.18831083
      28.70000000      90.00000000      45.00000000      35.54670481       1.18831926
      28.80000000      90.00000000      45.00000000      35.54695716       1.18832770
      28.90000000      90.00000000      45.00000000      35.54720949       1.18833613
      29.00000000      90.00000000      45.00000000      35.54746180       1.18834457
      29.10000000      90.00000000      45.00000000      35.54771408       1.18835300
      29.20000000      90.00000000      45.00000000      35.54796635       1.18836144
      29.30000000      90.00000000      45.00000000      35.54821860       1.18836987
      29.40000000      90.00000000      45.00000000      35.54847082       1.18837830
      29.50000000      90.00000000      45.00000000      35.54872303       1.18838673
      29.60000000      90.00000000      45.00000000      35.54897521       1.18839516
      29.70000000      90.00000000      45.00000000      35.54922738       1.18840359
      29.80000000      90.00000000      45.00000000      35.54947952       1.18841202
      29.90000000      90.00000000      45.00000000      35.54973165       1.18842045
      30.00000000      90.00000000      45.00000000      35.54998375       1.18842888
      30.10000000      90.00000000      45.00000000      35.55023583       1.18843730
      30.20000000      90.00000000      45.00000000      35.55048789       1.18844573
      30.30000000      90.00000000      45.00000000      35.55073993       1.18845416
      30.40000000      90.00000000      45.00000000      35.55099195       1.18846258
      30.50000000      90.00000000      45.00000000      35.55124395       1.18847101
      30.60000000      90.00000000      45.00000000      35.55149593       1.18847943
      30.70000000      90.00000000      45.00000000      35.55174789       1.18848785
      30.80000000      90.00000000      45.00000000      35.55199983       1.18849627
      30.90000000      90.00000000      45.00000000      35.55225175       1.18850470
      31.00000000      90.00000000      45.00000000      35.55250365       1.18851312
      31.10000000      90.00000000      45.00000000      35.55275553       1.18852154
      31.20000000      90.00000000      45.00000000      35.55300738       1.18852996
      31.30000000      90.00000000      45.00000000      35.55325922       1.18853838
      31.40000000      90.00000000      45.00000000      35.55351104       1.18854679
      31.50000000      90.00000000      45.00000000      35.55376283       1.18855521
      31.60000000      90.00000000      45.00000000      35.55401461       1.18856363
      31.70000000      90.00000000      45.00000000      35.55426636       1.18857204
      31.80000000      90.00000000      45.00000000      35.55451810       1.18858046
      31.90000000      90.00000000      45.00000000      35.55476981       1.18858887
      32.00000000      90.00000000      45.00000000      35.55502151       1.18859729
      32.10000000      90.00000000      45.00000000      35.55527318       1.18860570
      32.20000000      90.00000000      45.00000000      35.55552484       1.18861411
      32.30000000      90.00000000      45.00000000      35.55577647       1.18862253
      32.40000000      90.00000000      45.00000000      35.55602808       1.18863094
      32.50000000      90.00000000      45.00000000      35.55627967       1.18863935
      32.60000000      90.00000000      45.00000000      35.55653125       1.18864776
      32.70000000      90.00000000      45.00000000      35.55678280       1.18865617
      32.80000000      90.00000000      45.00000000      35.55703433       1.18866458
      32.90000000      90.00000000      45.00000000      35.55728584       1.18867298
      33.00000000      90.00000000      45.00000000      35.55753733       1.18868139
      33.10000000      90.00000000      45.00000000      35.55778880       1.18868980
      33.20000000      90.00000000      45.00000000      35.55804025       1.18869820
      33.30000000      90.00000000      45.00000000      35.55829168       1.18870661
      33.40000000      90.00000000      45.00000000      35.55854310       1.18871501
      33.50000000      90.00000000      45.00000000      35.55879449       1.18872342
      33.60000000      90.00000000      45.00000000      35.55904585       1.18873182
      33.70000000      90.00000000      45.00000000      35.55929720       1.18874022
      33.80000000      90.00000000      45.00000000      35.55954853       1.18874863
      33.90000000      90.00000000      45.00000000      35.55979984       1.18875703
      34.00000000      90.00000000      45.00000000      35.56005113       1.18876543
      34.10000000      90.00000000      45.00000000      35.56030240       1.18877383
      34.20000000      90.00000000      45.00000000      35.56055365       1.18878223
      34.30000000      90.00000000      45.00000000      35.56080488       1.18879063
      34.40000000      90.00000000      45.00000000      35.56105609       1.18879902
      34.50000000      90.00000000      45.00000000      35.56130727       1.18880742
      34.60000000      90.00000000      45.00000000      35.56155844       1.18881582
      34.70000000      90.00000000      45.00000000      35.56180959       1.18882421
      34.80000000      90.00000000      45.00000000      35.56206072       1.18883261
      34.90000000      90.00000000      45.00000000      35.56231183       1.18884100
      35.00000000      90.00000000      45.00000000      35.56256291       1.18884940
      35.10000000      90.00000000      45.00000000      35.56281398       1.18885779
      35.20000000      90.00000000      45.00000000      35.56306503       1.18886618
      35.30000000      90.00000000      45.00000000      35.56331605       1.18887457
      35.40000000      90.00000000      45.00000000      35.56356706       1.18888296
      35.50000000      90.00000000      45.00000000      35.56381805       1.18889136
      35.60000000      90.00000000      45.00000000      35.56406902       1.18889975
      35.70000000      90.00000000      45.00000000      35.56431996       1.18890813
      35.80000000      90.00000000      45.00000000      35.56457089       1.18891652
      35.90000000      90.00000000      45.00000000      35.56482180       1.18892491
      36.00000000      90.00000000      45.00000000      35.56507268       1.18893330
      36.10000000      90.00000000      45.00000000      35.56532355       1.18894168
      36.20000000      90.00000000      45.00000000      35.56557440       1.18895007
      36.30000000      90.00000000      45.00000000      35.56582522       1.18895845
      36.40000000      90.00000000      45.00000000      35.56607603       1.18896684
      36.50000000      90.00000000      45.00000000      35.56632682       1.18897522
      36.60000000      90.00000000      45.00000000      35.56657758       1.18898361
      36.70000000      90.00000000      45.00000000      35.56682833       1.18899199
      36.80000000      90.00000000      45.00000000      35.56707906       1.18900037
      36.90000000      90.00000000      45.00000000      35.56732977       1.18900875
      37.00000000      90.00000000      45.00000000      35.56758045       1.18901713
      37.10000000      90.00000000      45.00000000      35.56783112       1.18902551
      37.20000000      90.00000000      45.00000000      35.56808177       1.18903389
      37.30000000      90.00000000      45.00000000      35.56833239       1.18904227
      37.40000000      90.00000000      45.00000000      35.56858300       1.18905065
      37.50000000      90.00000000      45.00000000      35.56883359       1.18905902
      37.60000000      90.00000000      45.00000000      35.56908416       1.18906740
      37.70000000      90.00000000      45.00000000      35.56933470       1.18907578
      37.80000000      90.00000000      45.00000000      35.56958523       1.18908415
      37.90000000      90.00000000      45.00000000      35.56983574       1.18909253
      38.00000000      90.00000000      45.00000000      35.57008623       1.18910090
      38.10000000      90.00000000      45.00000000      35.57033670       1.18910927
      38.20000000      90.00000000      45.00000000      35.57058714       1.18911764
      38.30000000      90.00000000      45.00000000      35.57083757       1.18912602
      38.40000000      90.00000000      45.00000000      35.57108798       1.18913439
      38.50000000      90.00000000      45.00000000      35.57133837       1.18914276
      38.60000000      90.00000000      45.00000000      35.57158874       1.18915113
      38.70000000      90.00000000      45.00000000      35.57183909       1.18915950
      38.80000000      90.00000000      45.00000000      35.57208942       1.18916787
      38.90000000      90.00000000      45.00000000      35.57233973       1.18917623
      39.00000000      90.00000000      45.00000000      35.57259002       1.18918460
      39.10000000      90.00000000      45.00000000      35.57284029       1.18919297
      39.20000000      90.00000000      45.00000000      35.57309054       1.18920133
      39.30000000      90.00000000      45.00000000      35.57334077       1.18920970
      39.40000000      90.00000000      45.00000000      35.57359098       1.18921806
      39.50000000      90.00000000      45.00000000      35.57384117       1.18922643
      39.60000000      90.00000000      45.00000000      35.57409134       1.18923479
      39.70000000      90.00000000      45.00000000      35.57434149       1.18924315
      39.80000000      90.00000000      45.00000000      35.57459163       1.18925151
      39.90000000      90.00000000      45.00000000      35.57484174       1.18925987
      40.00000000      90.00000000      45.00000000      35.57509183       1.18926824
