 # applied field (T), theta (degree), phi (degree), abs [muB/unitcell], abs [T]
       0.00000000       0.00000000       0.00000000      34.70682909       1.16817407
       0.10000000       3.38117937      45.00000000      34.70661169       1.16816675
       0.20000000       6.93446784      45.00000000      34.70593048       1.16814382
       0.30000000      90.00000000      45.00000000      34.72000415       1.16861752
       0.40000000      90.00000000      45.00000000      34.72023437       1.16862527
       0.50000000      90.00000000      45.00000000      34.72046458       1.16863302
       0.60000000      90.00000000      45.00000000      34.72069475       1.16864076
       0.70000000      90.00000000      45.00000000      34.72092491       1.16864851
       0.80000000      90.00000000      45.00000000      34.72115504       1.16865626
       0.90000000      90.00000000      45.00000000      34.72138515       1.16866400
       1.00000000      90.00000000      45.00000000      34.72161524       1.16867175
       1.10000000      90.00000000      45.00000000      34.72184530       1.16867949
       1.20000000      90.00000000      45.00000000      34.72207535       1.16868723
       1.30000000      90.00000000      45.00000000      34.72230536       1.16869497
       1.40000000      90.00000000      45.00000000      34.72253536       1.16870272
       1.50000000      90.00000000      45.00000000      34.72276533       1.16871046
       1.60000000      90.00000000      45.00000000      34.72299528       1.16871820
       1.70000000      90.00000000      45.00000000      34.72322521       1.16872594
       1.80000000      90.00000000      45.00000000      34.72345512       1.16873367
       1.90000000      90.00000000      45.00000000      34.72368500       1.16874141
       2.00000000      90.00000000      45.00000000      34.72391486       1.16874915
       2.10000000      90.00000000      45.00000000      34.72414470       1.16875688
       2.20000000      90.00000000      45.00000000      34.72437451       1.16876462
       2.30000000      90.00000000      45.00000000      34.72460430       1.16877235
       2.40000000      90.00000000      45.00000000      34.72483407       1.16878009
       2.50000000      90.00000000      45.00000000      34.72506382       1.16878782
       2.60000000      90.00000000      45.00000000      34.72529354       1.16879555
       2.70000000      90.00000000      45.00000000      34.72552324       1.16880328
       2.80000000      90.00000000      45.00000000      34.72575292       1.16881101
       2.90000000      90.00000000      45.00000000      34.72598257       1.16881874
       3.00000000      90.00000000      45.00000000      34.72621221       1.16882647
       3.10000000      90.00000000      45.00000000      34.72644182       1.16883420
       3.20000000      90.00000000      45.00000000      34.72667140       1.16884193
       3.30000000      90.00000000      45.00000000      34.72690097       1.16884966
       3.40000000      90.00000000      45.00000000      34.72713051       1.16885738
       3.50000000      90.00000000      45.00000000      34.72736003       1.16886511
       3.60000000      90.00000000      45.00000000      34.72758953       1.16887283
       3.70000000      90.00000000      45.00000000      34.72781900       1.16888055
       3.80000000      90.00000000      45.00000000      34.72804845       1.16888828
       3.90000000      90.00000000      45.00000000      34.72827788       1.16889600
       4.00000000      90.00000000      45.00000000      34.72850729       1.16890372
       4.10000000      90.00000000      45.00000000      34.72873668       1.16891144
       4.20000000      90.00000000      45.00000000      34.72896604       1.16891916
       4.30000000      90.00000000      45.00000000      34.72919538       1.16892688
       4.40000000      90.00000000      45.00000000      34.72942469       1.16893460
       4.50000000      90.00000000      45.00000000      34.72965399       1.16894232
       4.60000000      90.00000000      45.00000000      34.72988326       1.16895003
       4.70000000      90.00000000      45.00000000      34.73011251       1.16895775
       4.80000000      90.00000000      45.00000000      34.73034173       1.16896547
       4.90000000      90.00000000      45.00000000      34.73057094       1.16897318
       5.00000000      90.00000000      45.00000000      34.73080012       1.16898089
       5.10000000      90.00000000      45.00000000      34.73102928       1.16898861
       5.20000000      90.00000000      45.00000000      34.73125842       1.16899632
       5.30000000      90.00000000      45.00000000      34.73148753       1.16900403
       5.40000000      90.00000000      45.00000000      34.73171662       1.16901174
       5.50000000      90.00000000      45.00000000      34.73194569       1.16901945
       5.60000000      90.00000000      45.00000000      34.73217474       1.16902716
       5.70000000      90.00000000      45.00000000      34.73240376       1.16903487
       5.80000000      90.00000000      45.00000000      34.73263276       1.16904258
       5.90000000      90.00000000      45.00000000      34.73286174       1.16905029
       6.00000000      90.00000000      45.00000000      34.73309070       1.16905799
       6.10000000      90.00000000      45.00000000      34.73331964       1.16906570
       6.20000000      90.00000000      45.00000000      34.73354855       1.16907340
       6.30000000      90.00000000      45.00000000      34.73377744       1.16908111
       6.40000000      90.00000000      45.00000000      34.73400631       1.16908881
       6.50000000      90.00000000      45.00000000      34.73423515       1.16909651
       6.60000000      90.00000000      45.00000000      34.73446398       1.16910421
       6.70000000      90.00000000      45.00000000      34.73469278       1.16911191
       6.80000000      90.00000000      45.00000000      34.73492155       1.16911961
       6.90000000      90.00000000      45.00000000      34.73515031       1.16912731
       7.00000000      90.00000000      45.00000000      34.73537904       1.16913501
       7.10000000      90.00000000      45.00000000      34.73560776       1.16914271
       7.20000000      90.00000000      45.00000000      34.73583645       1.16915041
       7.30000000      90.00000000      45.00000000      34.73606511       1.16915811
       7.40000000      90.00000000      45.00000000      34.73629376       1.16916580
       7.50000000      90.00000000      45.00000000      34.73652238       1.16917350
       7.60000000      90.00000000      45.00000000      34.73675098       1.16918119
       7.70000000      90.00000000      45.00000000      34.73697956       1.16918888
       7.80000000      90.00000000      45.00000000      34.73720811       1.16919658
       7.90000000      90.00000000      45.00000000      34.73743665       1.16920427
       8.00000000      90.00000000      45.00000000      34.73766516       1.16921196
       8.10000000      90.00000000      45.00000000      34.73789365       1.16921965
       8.20000000      90.00000000      45.00000000      34.73812211       1.16922734
       8.30000000      90.00000000      45.00000000      34.73835056       1.16923503
       8.40000000      90.00000000      45.00000000      34.73857898       1.16924272
       8.50000000      90.00000000      45.00000000      34.73880738       1.16925041
       8.60000000      90.00000000      45.00000000      34.73903576       1.16925809
       8.70000000      90.00000000      45.00000000      34.73926411       1.16926578
       8.80000000      90.00000000      45.00000000      34.73949245       1.16927346
       8.90000000      90.00000000      45.00000000      34.73972076       1.16928115
       9.00000000      90.00000000      45.00000000      34.73994905       1.16928883
       9.10000000      90.00000000      45.00000000      34.74017732       1.16929652
       9.20000000      90.00000000      45.00000000      34.74040556       1.16930420
       9.30000000      90.00000000      45.00000000      34.74063378       1.16931188
       9.40000000      90.00000000      45.00000000      34.74086199       1.16931956
       9.50000000      90.00000000      45.00000000      34.74109016       1.16932724
       9.60000000      90.00000000      45.00000000      34.74131832       1.16933492
       9.70000000      90.00000000      45.00000000      34.74154646       1.16934260
       9.80000000      90.00000000      45.00000000      34.74177457       1.16935028
       9.90000000      90.00000000      45.00000000      34.74200266       1.16935795
      10.00000000      90.00000000      45.00000000      34.74223073       1.16936563
      10.10000000      90.00000000      45.00000000      34.74245877       1.16937331
      10.20000000      90.00000000      45.00000000      34.74268680       1.16938098
      10.30000000      90.00000000      45.00000000      34.74291480       1.16938865
      10.40000000      90.00000000      45.00000000      34.74314278       1.16939633
      10.50000000      90.00000000      45.00000000      34.74337074       1.16940400
      10.60000000      90.00000000      45.00000000      34.74359868       1.16941167
      10.70000000      90.00000000      45.00000000      34.74382659       1.16941934
      10.80000000      90.00000000      45.00000000      34.74405448       1.16942701
      10.90000000      90.00000000      45.00000000      34.74428235       1.16943468
      11.00000000      90.00000000      45.00000000      34.74451020       1.16944235
      11.10000000      90.00000000      45.00000000      34.74473803       1.16945002
      11.20000000      90.00000000      45.00000000      34.74496583       1.16945769
      11.30000000      90.00000000      45.00000000      34.74519361       1.16946536
      11.40000000      90.00000000      45.00000000      34.74542137       1.16947302
      11.50000000      90.00000000      45.00000000      34.74564911       1.16948069
      11.60000000      90.00000000      45.00000000      34.74587683       1.16948835
      11.70000000      90.00000000      45.00000000      34.74610452       1.16949602
      11.80000000      90.00000000      45.00000000      34.74633220       1.16950368
      11.90000000      90.00000000      45.00000000      34.74655985       1.16951134
      12.00000000      90.00000000      45.00000000      34.74678748       1.16951900
      12.10000000      90.00000000      45.00000000      34.74701508       1.16952666
      12.20000000      90.00000000      45.00000000      34.74724267       1.16953432
      12.30000000      90.00000000      45.00000000      34.74747023       1.16954198
      12.40000000      90.00000000      45.00000000      34.74769778       1.16954964
      12.50000000      90.00000000      45.00000000      34.74792530       1.16955730
      12.60000000      90.00000000      45.00000000      34.74815279       1.16956496
      12.70000000      90.00000000      45.00000000      34.74838027       1.16957261
      12.80000000      90.00000000      45.00000000      34.74860772       1.16958027
      12.90000000      90.00000000      45.00000000      34.74883516       1.16958792
      13.00000000      90.00000000      45.00000000      34.74906257       1.16959558
      13.10000000      90.00000000      45.00000000      34.74928996       1.16960323
      13.20000000      90.00000000      45.00000000      34.74951732       1.16961088
      13.30000000      90.00000000      45.00000000      34.74974467       1.16961854
      13.40000000      90.00000000      45.00000000      34.74997199       1.16962619
      13.50000000      90.00000000      45.00000000      34.75019929       1.16963384
      13.60000000      90.00000000      45.00000000      34.75042657       1.16964149
      13.70000000      90.00000000      45.00000000      34.75065383       1.16964914
      13.80000000      90.00000000      45.00000000      34.75088107       1.16965679
      13.90000000      90.00000000      45.00000000      34.75110828       1.16966443
      14.00000000      90.00000000      45.00000000      34.75133548       1.16967208
      14.10000000      90.00000000      45.00000000      34.75156265       1.16967973
      14.20000000      90.00000000      45.00000000      34.75178980       1.16968737
      14.30000000      90.00000000      45.00000000      34.75201692       1.16969502
      14.40000000      90.00000000      45.00000000      34.75224403       1.16970266
      14.50000000      90.00000000      45.00000000      34.75247112       1.16971030
      14.60000000      90.00000000      45.00000000      34.75269818       1.16971795
      14.70000000      90.00000000      45.00000000      34.75292522       1.16972559
      14.80000000      90.00000000      45.00000000      34.75315224       1.16973323
      14.90000000      90.00000000      45.00000000      34.75337924       1.16974087
      15.00000000      90.00000000      45.00000000      34.75360621       1.16974851
      15.10000000      90.00000000      45.00000000      34.75383317       1.16975615
      15.20000000      90.00000000      45.00000000      34.75406010       1.16976379
      15.30000000      90.00000000      45.00000000      34.75428701       1.16977142
      15.40000000      90.00000000      45.00000000      34.75451390       1.16977906
      15.50000000      90.00000000      45.00000000      34.75474077       1.16978670
      15.60000000      90.00000000      45.00000000      34.75496762       1.16979433
      15.70000000      90.00000000      45.00000000      34.75519444       1.16980197
      15.80000000      90.00000000      45.00000000      34.75542125       1.16980960
      15.90000000      90.00000000      45.00000000      34.75564803       1.16981723
      16.00000000      90.00000000      45.00000000      34.75587479       1.16982487
      16.10000000      90.00000000      45.00000000      34.75610153       1.16983250
      16.20000000      90.00000000      45.00000000      34.75632824       1.16984013
      16.30000000      90.00000000      45.00000000      34.75655494       1.16984776
      16.40000000      90.00000000      45.00000000      34.75678162       1.16985539
      16.50000000      90.00000000      45.00000000      34.75700827       1.16986302
      16.60000000      90.00000000      45.00000000      34.75723490       1.16987064
      16.70000000      90.00000000      45.00000000      34.75746151       1.16987827
      16.80000000      90.00000000      45.00000000      34.75768810       1.16988590
      16.90000000      90.00000000      45.00000000      34.75791466       1.16989352
      17.00000000      90.00000000      45.00000000      34.75814121       1.16990115
      17.10000000      90.00000000      45.00000000      34.75836773       1.16990877
      17.20000000      90.00000000      45.00000000      34.75859424       1.16991640
      17.30000000      90.00000000      45.00000000      34.75882072       1.16992402
      17.40000000      90.00000000      45.00000000      34.75904718       1.16993164
      17.50000000      90.00000000      45.00000000      34.75927361       1.16993926
      17.60000000      90.00000000      45.00000000      34.75950003       1.16994689
      17.70000000      90.00000000      45.00000000      34.75972643       1.16995451
      17.80000000      90.00000000      45.00000000      34.75995280       1.16996212
      17.90000000      90.00000000      45.00000000      34.76017915       1.16996974
      18.00000000      90.00000000      45.00000000      34.76040548       1.16997736
      18.10000000      90.00000000      45.00000000      34.76063179       1.16998498
      18.20000000      90.00000000      45.00000000      34.76085808       1.16999260
      18.30000000      90.00000000      45.00000000      34.76108435       1.17000021
      18.40000000      90.00000000      45.00000000      34.76131059       1.17000783
      18.50000000      90.00000000      45.00000000      34.76153682       1.17001544
      18.60000000      90.00000000      45.00000000      34.76176302       1.17002305
      18.70000000      90.00000000      45.00000000      34.76198920       1.17003067
      18.80000000      90.00000000      45.00000000      34.76221536       1.17003828
      18.90000000      90.00000000      45.00000000      34.76244150       1.17004589
      19.00000000      90.00000000      45.00000000      34.76266762       1.17005350
      19.10000000      90.00000000      45.00000000      34.76289372       1.17006111
      19.20000000      90.00000000      45.00000000      34.76311979       1.17006872
      19.30000000      90.00000000      45.00000000      34.76334585       1.17007633
      19.40000000      90.00000000      45.00000000      34.76357188       1.17008394
      19.50000000      90.00000000      45.00000000      34.76379789       1.17009154
      19.60000000      90.00000000      45.00000000      34.76402388       1.17009915
      19.70000000      90.00000000      45.00000000      34.76424985       1.17010676
      19.80000000      90.00000000      45.00000000      34.76447580       1.17011436
      19.90000000      90.00000000      45.00000000      34.76470172       1.17012197
      20.00000000      90.00000000      45.00000000      34.76492763       1.17012957
      20.10000000      90.00000000      45.00000000      34.76515351       1.17013717
      20.20000000      90.00000000      45.00000000      34.76537938       1.17014477
      20.30000000      90.00000000      45.00000000      34.76560522       1.17015238
      20.40000000      90.00000000      45.00000000      34.76583104       1.17015998
      20.50000000      90.00000000      45.00000000      34.76605684       1.17016758
      20.60000000      90.00000000      45.00000000      34.76628261       1.17017518
      20.70000000      90.00000000      45.00000000      34.76650837       1.17018277
      20.80000000      90.00000000      45.00000000      34.76673411       1.17019037
      20.90000000      90.00000000      45.00000000      34.76695982       1.17019797
      21.00000000      90.00000000      45.00000000      34.76718552       1.17020557
      21.10000000      90.00000000      45.00000000      34.76741119       1.17021316
      21.20000000      90.00000000      45.00000000      34.76763684       1.17022076
      21.30000000      90.00000000      45.00000000      34.76786247       1.17022835
      21.40000000      90.00000000      45.00000000      34.76808808       1.17023594
      21.50000000      90.00000000      45.00000000      34.76831367       1.17024354
      21.60000000      90.00000000      45.00000000      34.76853923       1.17025113
      21.70000000      90.00000000      45.00000000      34.76876478       1.17025872
      21.80000000      90.00000000      45.00000000      34.76899030       1.17026631
      21.90000000      90.00000000      45.00000000      34.76921581       1.17027390
      22.00000000      90.00000000      45.00000000      34.76944129       1.17028149
      22.10000000      90.00000000      45.00000000      34.76966675       1.17028908
      22.20000000      90.00000000      45.00000000      34.76989219       1.17029667
      22.30000000      90.00000000      45.00000000      34.77011761       1.17030426
      22.40000000      90.00000000      45.00000000      34.77034301       1.17031184
      22.50000000      90.00000000      45.00000000      34.77056839       1.17031943
      22.60000000      90.00000000      45.00000000      34.77079374       1.17032701
      22.70000000      90.00000000      45.00000000      34.77101908       1.17033460
      22.80000000      90.00000000      45.00000000      34.77124439       1.17034218
      22.90000000      90.00000000      45.00000000      34.77146969       1.17034976
      23.00000000      90.00000000      45.00000000      34.77169496       1.17035735
      23.10000000      90.00000000      45.00000000      34.77192021       1.17036493
      23.20000000      90.00000000      45.00000000      34.77214544       1.17037251
      23.30000000      90.00000000      45.00000000      34.77237065       1.17038009
      23.40000000      90.00000000      45.00000000      34.77259584       1.17038767
      23.50000000      90.00000000      45.00000000      34.77282101       1.17039525
      23.60000000      90.00000000      45.00000000      34.77304616       1.17040283
      23.70000000      90.00000000      45.00000000      34.77327128       1.17041040
      23.80000000      90.00000000      45.00000000      34.77349639       1.17041798
      23.90000000      90.00000000      45.00000000      34.77372147       1.17042556
      24.00000000      90.00000000      45.00000000      34.77394654       1.17043313
      24.10000000      90.00000000      45.00000000      34.77417158       1.17044071
      24.20000000      90.00000000      45.00000000      34.77439660       1.17044828
      24.30000000      90.00000000      45.00000000      34.77462160       1.17045585
      24.40000000      90.00000000      45.00000000      34.77484658       1.17046342
      24.50000000      90.00000000      45.00000000      34.77507154       1.17047100
      24.60000000      90.00000000      45.00000000      34.77529648       1.17047857
      24.70000000      90.00000000      45.00000000      34.77552139       1.17048614
      24.80000000      90.00000000      45.00000000      34.77574629       1.17049371
      24.90000000      90.00000000      45.00000000      34.77597117       1.17050128
      25.00000000      90.00000000      45.00000000      34.77619602       1.17050884
      25.10000000      90.00000000      45.00000000      34.77642086       1.17051641
      25.20000000      90.00000000      45.00000000      34.77664567       1.17052398
      25.30000000      90.00000000      45.00000000      34.77687046       1.17053155
      25.40000000      90.00000000      45.00000000      34.77709524       1.17053911
      25.50000000      90.00000000      45.00000000      34.77731999       1.17054668
      25.60000000      90.00000000      45.00000000      34.77754472       1.17055424
      25.70000000      90.00000000      45.00000000      34.77776943       1.17056180
      25.80000000      90.00000000      45.00000000      34.77799412       1.17056937
      25.90000000      90.00000000      45.00000000      34.77821878       1.17057693
      26.00000000      90.00000000      45.00000000      34.77844343       1.17058449
      26.10000000      90.00000000      45.00000000      34.77866806       1.17059205
      26.20000000      90.00000000      45.00000000      34.77889266       1.17059961
      26.30000000      90.00000000      45.00000000      34.77911725       1.17060717
      26.40000000      90.00000000      45.00000000      34.77934181       1.17061473
      26.50000000      90.00000000      45.00000000      34.77956636       1.17062228
      26.60000000      90.00000000      45.00000000      34.77979088       1.17062984
      26.70000000      90.00000000      45.00000000      34.78001539       1.17063740
      26.80000000      90.00000000      45.00000000      34.78023987       1.17064495
      26.90000000      90.00000000      45.00000000      34.78046433       1.17065251
      27.00000000      90.00000000      45.00000000      34.78068877       1.17066006
      27.10000000      90.00000000      45.00000000      34.78091319       1.17066762
      27.20000000      90.00000000      45.00000000      34.78113759       1.17067517
      27.30000000      90.00000000      45.00000000      34.78136197       1.17068272
      27.40000000      90.00000000      45.00000000      34.78158633       1.17069027
      27.50000000      90.00000000      45.00000000      34.78181066       1.17069782
      27.60000000      90.00000000      45.00000000      34.78203498       1.17070537
      27.70000000      90.00000000      45.00000000      34.78225928       1.17071292
      27.80000000      90.00000000      45.00000000      34.78248356       1.17072047
      27.90000000      90.00000000      45.00000000      34.78270781       1.17072802
      28.00000000      90.00000000      45.00000000      34.78293205       1.17073557
      28.10000000      90.00000000      45.00000000      34.78315626       1.17074311
      28.20000000      90.00000000      45.00000000      34.78338045       1.17075066
      28.30000000      90.00000000      45.00000000      34.78360463       1.17075821
      28.40000000      90.00000000      45.00000000      34.78382878       1.17076575
      28.50000000      90.00000000      45.00000000      34.78405291       1.17077329
      28.60000000      90.00000000      45.00000000      34.78427703       1.17078084
      28.70000000      90.00000000      45.00000000      34.78450112       1.17078838
      28.80000000      90.00000000      45.00000000      34.78472519       1.17079592
      28.90000000      90.00000000      45.00000000      34.78494924       1.17080346
      29.00000000      90.00000000      45.00000000      34.78517327       1.17081100
      29.10000000      90.00000000      45.00000000      34.78539728       1.17081854
      29.20000000      90.00000000      45.00000000      34.78562127       1.17082608
      29.30000000      90.00000000      45.00000000      34.78584524       1.17083362
      29.40000000      90.00000000      45.00000000      34.78606918       1.17084116
      29.50000000      90.00000000      45.00000000      34.78629311       1.17084870
      29.60000000      90.00000000      45.00000000      34.78651702       1.17085623
      29.70000000      90.00000000      45.00000000      34.78674091       1.17086377
      29.80000000      90.00000000      45.00000000      34.78696477       1.17087130
      29.90000000      90.00000000      45.00000000      34.78718862       1.17087884
      30.00000000      90.00000000      45.00000000      34.78741245       1.17088637
      30.10000000      90.00000000      45.00000000      34.78763625       1.17089390
      30.20000000      90.00000000      45.00000000      34.78786004       1.17090144
      30.30000000      90.00000000      45.00000000      34.78808380       1.17090897
      30.40000000      90.00000000      45.00000000      34.78830755       1.17091650
      30.50000000      90.00000000      45.00000000      34.78853127       1.17092403
      30.60000000      90.00000000      45.00000000      34.78875497       1.17093156
      30.70000000      90.00000000      45.00000000      34.78897866       1.17093909
      30.80000000      90.00000000      45.00000000      34.78920232       1.17094662
      30.90000000      90.00000000      45.00000000      34.78942596       1.17095414
      31.00000000      90.00000000      45.00000000      34.78964959       1.17096167
      31.10000000      90.00000000      45.00000000      34.78987319       1.17096920
      31.20000000      90.00000000      45.00000000      34.79009677       1.17097672
      31.30000000      90.00000000      45.00000000      34.79032033       1.17098425
      31.40000000      90.00000000      45.00000000      34.79054387       1.17099177
      31.50000000      90.00000000      45.00000000      34.79076740       1.17099929
      31.60000000      90.00000000      45.00000000      34.79099090       1.17100682
      31.70000000      90.00000000      45.00000000      34.79121438       1.17101434
      31.80000000      90.00000000      45.00000000      34.79143784       1.17102186
      31.90000000      90.00000000      45.00000000      34.79166128       1.17102938
      32.00000000      90.00000000      45.00000000      34.79188470       1.17103690
      32.10000000      90.00000000      45.00000000      34.79210810       1.17104442
      32.20000000      90.00000000      45.00000000      34.79233148       1.17105194
      32.30000000      90.00000000      45.00000000      34.79255484       1.17105946
      32.40000000      90.00000000      45.00000000      34.79277818       1.17106697
      32.50000000      90.00000000      45.00000000      34.79300150       1.17107449
      32.60000000      90.00000000      45.00000000      34.79322480       1.17108200
      32.70000000      90.00000000      45.00000000      34.79344807       1.17108952
      32.80000000      90.00000000      45.00000000      34.79367133       1.17109703
      32.90000000      90.00000000      45.00000000      34.79389457       1.17110455
      33.00000000      90.00000000      45.00000000      34.79411779       1.17111206
      33.10000000      90.00000000      45.00000000      34.79434099       1.17111957
      33.20000000      90.00000000      45.00000000      34.79456417       1.17112709
      33.30000000      90.00000000      45.00000000      34.79478733       1.17113460
      33.40000000      90.00000000      45.00000000      34.79501046       1.17114211
      33.50000000      90.00000000      45.00000000      34.79523358       1.17114962
      33.60000000      90.00000000      45.00000000      34.79545668       1.17115713
      33.70000000      90.00000000      45.00000000      34.79567976       1.17116463
      33.80000000      90.00000000      45.00000000      34.79590282       1.17117214
      33.90000000      90.00000000      45.00000000      34.79612585       1.17117965
      34.00000000      90.00000000      45.00000000      34.79634887       1.17118716
      34.10000000      90.00000000      45.00000000      34.79657187       1.17119466
      34.20000000      90.00000000      45.00000000      34.79679485       1.17120217
      34.30000000      90.00000000      45.00000000      34.79701780       1.17120967
      34.40000000      90.00000000      45.00000000      34.79724074       1.17121717
      34.50000000      90.00000000      45.00000000      34.79746366       1.17122468
      34.60000000      90.00000000      45.00000000      34.79768656       1.17123218
      34.70000000      90.00000000      45.00000000      34.79790944       1.17123968
      34.80000000      90.00000000      45.00000000      34.79813229       1.17124718
      34.90000000      90.00000000      45.00000000      34.79835513       1.17125468
      35.00000000      90.00000000      45.00000000      34.79857795       1.17126218
      35.10000000      90.00000000      45.00000000      34.79880075       1.17126968
      35.20000000      90.00000000      45.00000000      34.79902352       1.17127718
      35.30000000      90.00000000      45.00000000      34.79924628       1.17128468
      35.40000000      90.00000000      45.00000000      34.79946902       1.17129218
      35.50000000      90.00000000      45.00000000      34.79969174       1.17129967
      35.60000000      90.00000000      45.00000000      34.79991444       1.17130717
      35.70000000      90.00000000      45.00000000      34.80013712       1.17131466
      35.80000000      90.00000000      45.00000000      34.80035977       1.17132216
      35.90000000      90.00000000      45.00000000      34.80058241       1.17132965
      36.00000000      90.00000000      45.00000000      34.80080503       1.17133714
      36.10000000      90.00000000      45.00000000      34.80102763       1.17134464
      36.20000000      90.00000000      45.00000000      34.80125021       1.17135213
      36.30000000      90.00000000      45.00000000      34.80147277       1.17135962
      36.40000000      90.00000000      45.00000000      34.80169531       1.17136711
      36.50000000      90.00000000      45.00000000      34.80191783       1.17137460
      36.60000000      90.00000000      45.00000000      34.80214033       1.17138209
      36.70000000      90.00000000      45.00000000      34.80236281       1.17138958
      36.80000000      90.00000000      45.00000000      34.80258527       1.17139706
      36.90000000      90.00000000      45.00000000      34.80280771       1.17140455
      37.00000000      90.00000000      45.00000000      34.80303013       1.17141204
      37.10000000      90.00000000      45.00000000      34.80325253       1.17141952
      37.20000000      90.00000000      45.00000000      34.80347491       1.17142701
      37.30000000      90.00000000      45.00000000      34.80369727       1.17143449
      37.40000000      90.00000000      45.00000000      34.80391961       1.17144197
      37.50000000      90.00000000      45.00000000      34.80414193       1.17144946
      37.60000000      90.00000000      45.00000000      34.80436423       1.17145694
      37.70000000      90.00000000      45.00000000      34.80458652       1.17146442
      37.80000000      90.00000000      45.00000000      34.80480878       1.17147190
      37.90000000      90.00000000      45.00000000      34.80503102       1.17147938
      38.00000000      90.00000000      45.00000000      34.80525324       1.17148686
      38.10000000      90.00000000      45.00000000      34.80547545       1.17149434
      38.20000000      90.00000000      45.00000000      34.80569763       1.17150182
      38.30000000      90.00000000      45.00000000      34.80591980       1.17150930
      38.40000000      90.00000000      45.00000000      34.80614194       1.17151677
      38.50000000      90.00000000      45.00000000      34.80636406       1.17152425
      38.60000000      90.00000000      45.00000000      34.80658617       1.17153173
      38.70000000      90.00000000      45.00000000      34.80680825       1.17153920
      38.80000000      90.00000000      45.00000000      34.80703032       1.17154668
      38.90000000      90.00000000      45.00000000      34.80725237       1.17155415
      39.00000000      90.00000000      45.00000000      34.80747439       1.17156162
      39.10000000      90.00000000      45.00000000      34.80769640       1.17156910
      39.20000000      90.00000000      45.00000000      34.80791839       1.17157657
      39.30000000      90.00000000      45.00000000      34.80814035       1.17158404
      39.40000000      90.00000000      45.00000000      34.80836230       1.17159151
      39.50000000      90.00000000      45.00000000      34.80858423       1.17159898
      39.60000000      90.00000000      45.00000000      34.80880614       1.17160645
      39.70000000      90.00000000      45.00000000      34.80902803       1.17161392
      39.80000000      90.00000000      45.00000000      34.80924990       1.17162138
      39.90000000      90.00000000      45.00000000      34.80947175       1.17162885
      40.00000000      90.00000000      45.00000000      34.80969358       1.17163632
