 # applied field (T), theta (degree), phi (degree), abs [muB/unitcell], abs [T]
       0.00000000       0.00000000       0.00000000      43.29967268       1.45739487
       0.10000000       0.16942951      45.00000000      43.29967204       1.45739485
       0.20000000       0.39510201      45.00000000      43.29966874       1.45739474
       0.30000000       0.56453174      45.00000000      43.29966492       1.45739461
       0.40000000       0.73396167      45.00000000      43.29965982       1.45739444
       0.50000000       0.95963506      45.00000000      43.29964993       1.45739411
       0.60000000       1.12906569      45.00000000      43.29964166       1.45739383
       0.70000000       1.29849671      45.00000000      43.29963211       1.45739351
       0.80000000       1.52417187      45.00000000      43.29961565       1.45739296
       0.90000000       1.69360405      45.00000000      43.29960294       1.45739253
       1.00000000       1.86303681      45.00000000      43.29958896       1.45739206
       1.10000000       2.08871464      45.00000000      43.29956594       1.45739128
       1.20000000       2.25814902      45.00000000      43.29954881       1.45739071
       1.30000000       2.42758419      45.00000000      43.29953043       1.45739009
       1.40000000       2.65326556      45.00000000      43.29950090       1.45738909
       1.50000000       2.82270281      45.00000000      43.29947939       1.45738837
       1.60000000       2.99214104      45.00000000      43.29945663       1.45738760
       1.70000000       3.21782685      45.00000000      43.29942064       1.45738639
       1.80000000       3.38726762      45.00000000      43.29939479       1.45738552
       1.90000000       3.61295707      45.00000000      43.29935423       1.45738416
       2.00000000       3.78240070      45.00000000      43.29932530       1.45738318
       2.10000000       3.95184566      45.00000000      43.29929515       1.45738217
       2.20000000       4.17754105      45.00000000      43.29924823       1.45738059
       2.30000000       4.34698933      45.00000000      43.29921504       1.45737947
       2.40000000       4.51643912      45.00000000      43.29918064       1.45737831
       2.50000000       4.74214134      45.00000000      43.29912745       1.45737652
       2.60000000       4.91159492      45.00000000      43.29909006       1.45737526
       2.70000000       5.08105021      45.00000000      43.29905148       1.45737397
       2.80000000       5.30676013      45.00000000      43.29899210       1.45737197
       2.90000000       5.47621967      45.00000000      43.29895057       1.45737057
       3.00000000       5.64568112      45.00000000      43.29890788       1.45736913
       3.10000000       5.87139964      45.00000000      43.29884241       1.45736693
       3.20000000       6.04086579      45.00000000      43.29879683       1.45736539
       3.30000000       6.21033405      45.00000000      43.29875010       1.45736382
       3.40000000       6.43606204      45.00000000      43.29867864       1.45736142
       3.50000000       6.60553546      45.00000000      43.29862909       1.45735975
       3.60000000       6.77501119      45.00000000      43.29857841       1.45735804
       3.70000000       7.00074954      45.00000000      43.29850109       1.45735544
       3.80000000       7.17023089      45.00000000      43.29844765       1.45735364
       3.90000000       7.33971473      45.00000000      43.29839312       1.45735181
       4.00000000       7.56546432      45.00000000      43.29831007       1.45734901
       4.10000000       7.73495425      45.00000000      43.29825284       1.45734709
       4.20000000       7.90444686      45.00000000      43.29819455       1.45734512
       4.30000000       8.13020857      45.00000000      43.29810591       1.45734214
       4.40000000       8.29970773      45.00000000      43.29804500       1.45734009
       4.50000000       8.46920977      45.00000000      43.29798307       1.45733801
       4.60000000       8.69498448      45.00000000      43.29788898       1.45733484
       4.70000000       8.86449352      45.00000000      43.29782451       1.45733267
       4.80000000       9.03400564      45.00000000      43.29775904       1.45733047
       4.90000000       9.25979423      45.00000000      43.29765967       1.45732712
       5.00000000       9.42931380      45.00000000      43.29759175       1.45732483
       5.10000000       9.59883665      45.00000000      43.29752288       1.45732252
       5.20000000       9.82464000      45.00000000      43.29741840       1.45731900
       5.30000000       9.99417075      45.00000000      43.29734716       1.45731660
       5.40000000      10.16370498      45.00000000      43.29727501       1.45731417
       5.50000000      10.33324273      45.00000000      43.29720197       1.45731171
       5.60000000      10.55906654      45.00000000      43.29709118       1.45730799
       5.70000000      10.72861279      45.00000000      43.29701589       1.45730545
       5.80000000      10.89816277      45.00000000      43.29693974       1.45730289
       5.90000000      11.12400334      45.00000000      43.29682426       1.45729900
       6.00000000      11.29356227      45.00000000      43.29674598       1.45729637
       6.10000000      11.46312511      45.00000000      43.29666688       1.45729370
       6.20000000      11.68898332      45.00000000      43.29654692       1.45728967
       6.30000000      11.85855557      45.00000000      43.29646579       1.45728694
       6.40000000      12.02813192      45.00000000      43.29638390       1.45728418
       6.50000000      12.25400864      45.00000000      43.29625966       1.45728000
       6.60000000      12.42359486      45.00000000      43.29617584       1.45727718
       6.70000000      12.59318537      45.00000000      43.29609131       1.45727433
       6.80000000      12.81908146      45.00000000      43.29596302       1.45727001
       6.90000000      12.98868229      45.00000000      43.29587668       1.45726711
       7.00000000      13.15828760      45.00000000      43.29578968       1.45726418
       7.10000000      13.38420393      45.00000000      43.29565755       1.45725973
       7.20000000      13.55382001      45.00000000      43.29556887       1.45725675
       7.30000000      13.72344077      45.00000000      43.29547957       1.45725374
       7.40000000      13.89306627      45.00000000      43.29538966       1.45725072
       7.50000000      14.11901018      45.00000000      43.29525300       1.45724612
       7.60000000      14.28864702      45.00000000      43.29516158       1.45724304
       7.70000000      14.45828880      45.00000000      43.29506961       1.45723994
       7.80000000      14.68425493      45.00000000      43.29492967       1.45723523
       7.90000000      14.85390850      45.00000000      43.29483632       1.45723209
       8.00000000      15.02356719      45.00000000      43.29474248       1.45722893
       8.10000000      15.24955640      45.00000000      43.29459953       1.45722412
       8.20000000      15.41922734      45.00000000      43.29450443       1.45722092
       8.30000000      15.58890358      45.00000000      43.29440891       1.45721771
       8.40000000      15.75858519      45.00000000      43.29431297       1.45721448
       8.50000000      15.98460567      45.00000000      43.29416658       1.45720955
       8.60000000      16.15430010      45.00000000      43.29406957       1.45720628
       8.70000000      16.32400009      45.00000000      43.29397221       1.45720301
       8.80000000      16.55004561      45.00000000      43.29382342       1.45719800
       8.90000000      16.71975887      45.00000000      43.29372514       1.45719469
       9.00000000      16.88947786      45.00000000      43.29362657       1.45719137
       9.10000000      17.11554930      45.00000000      43.29347567       1.45718629
       9.20000000      17.28528200      45.00000000      43.29337632       1.45718295
       9.30000000      17.45502064      45.00000000      43.29327674       1.45717960
       9.40000000      17.62476527      45.00000000      43.29317696       1.45717624
       9.50000000      17.85087163      45.00000000      43.29302383       1.45717109
       9.60000000      18.02063053      45.00000000      43.29292346       1.45716771
       9.70000000      18.19039562      45.00000000      43.29282296       1.45716432
       9.80000000      18.36016694      45.00000000      43.29272234       1.45716094
       9.90000000      18.58630964      45.00000000      43.29256748       1.45715573
      10.00000000      18.75609582      45.00000000      43.29246648       1.45715233
      10.10000000      18.92588841      45.00000000      43.29236543       1.45714892
      10.20000000      19.15206007      45.00000000      43.29220953       1.45714368
      10.30000000      19.32186795      45.00000000      43.29210827       1.45714027
      10.40000000      19.49168245      45.00000000      43.29200702       1.45713686
      10.50000000      19.66150360      45.00000000      43.29190581       1.45713345
      10.60000000      19.88771412      45.00000000      43.29174912       1.45712818
      10.70000000      20.05755114      45.00000000      43.29164791       1.45712477
      10.80000000      20.22739500      45.00000000      43.29154681       1.45712137
      10.90000000      20.39724576      45.00000000      43.29144584       1.45711797
      11.00000000      20.62349656      45.00000000      43.29128889       1.45711269
      11.10000000      20.79336375      45.00000000      43.29118814       1.45710930
      11.20000000      20.96323803      45.00000000      43.29108759       1.45710591
      11.30000000      21.18952081      45.00000000      43.29093077       1.45710064
      11.40000000      21.35941194      45.00000000      43.29083062       1.45709727
      11.50000000      21.52931034      45.00000000      43.29073074       1.45709390
      11.60000000      21.69921608      45.00000000      43.29063116       1.45709055
      11.70000000      21.92554163      45.00000000      43.29047508       1.45708530
      11.80000000      22.09546478      45.00000000      43.29037613       1.45708197
      11.90000000      22.26539544      45.00000000      43.29027754       1.45707865
      12.00000000      22.43533367      45.00000000      43.29017936       1.45707535
      12.10000000      22.66170339      45.00000000      43.29002459       1.45707014
      12.20000000      22.83165960      45.00000000      43.28992726       1.45706686
      12.30000000      23.00162355      45.00000000      43.28983040       1.45706360
      12.40000000      23.17159530      45.00000000      43.28973404       1.45706036
      12.50000000      23.34157491      45.00000000      43.28963819       1.45705713
      12.60000000      23.56800088      45.00000000      43.28948591       1.45705201
      12.70000000      23.73799915      45.00000000      43.28939121       1.45704882
      12.80000000      23.90800546      45.00000000      43.28929711       1.45704565
      12.90000000      24.07801986      45.00000000      43.28920363       1.45704250
      13.00000000      24.30449310      45.00000000      43.28905399       1.45703747
      13.10000000      24.47452671      45.00000000      43.28896190       1.45703437
      13.20000000      24.64456860      45.00000000      43.28887050       1.45703129
      13.30000000      24.81461882      45.00000000      43.28877983       1.45702824
      13.40000000      25.04114071      45.00000000      43.28863345       1.45702331
      13.50000000      25.21121069      45.00000000      43.28854441       1.45702032
      13.60000000      25.38128918      45.00000000      43.28845617       1.45701735
      13.70000000      25.55137623      45.00000000      43.28836877       1.45701440
      13.80000000      25.72147189      45.00000000      43.28828221       1.45701149
      13.90000000      25.94805552      45.00000000      43.28814072       1.45700673
      14.00000000      26.11817162      45.00000000      43.28805610       1.45700388
      14.10000000      26.28829651      45.00000000      43.28797242       1.45700106
      14.20000000      26.45843025      45.00000000      43.28788969       1.45699828
      14.30000000      26.68506560      45.00000000      43.28775284       1.45699367
      14.40000000      26.85522033      45.00000000      43.28767230       1.45699096
      14.50000000      27.02538408      45.00000000      43.28759279       1.45698829
      14.60000000      27.19555691      45.00000000      43.28751436       1.45698565
      14.70000000      27.36573887      45.00000000      43.28743701       1.45698304
      14.80000000      27.59243969      45.00000000      43.28730677       1.45697866
      14.90000000      27.76264330      45.00000000      43.28723192       1.45697614
      15.00000000      27.93285623      45.00000000      43.28715824       1.45697366
      15.10000000      28.10307851      45.00000000      43.28708575       1.45697122
      15.20000000      28.27331021      45.00000000      43.28701448       1.45696882
      15.30000000      28.50007857      45.00000000      43.28689183       1.45696469
      15.40000000      28.67033258      45.00000000      43.28682337       1.45696239
      15.50000000      28.84059619      45.00000000      43.28675622       1.45696013
      15.60000000      29.01086944      45.00000000      43.28669039       1.45695791
      15.70000000      29.18115239      45.00000000      43.28662592       1.45695574
      15.80000000      29.35144508      45.00000000      43.28656283       1.45695362
      15.90000000      29.57829626      45.00000000      43.28645047       1.45694984
      16.00000000      29.74861205      45.00000000      43.28639056       1.45694782
      16.10000000      29.91893778      45.00000000      43.28633211       1.45694585
      16.20000000      30.08927347      45.00000000      43.28627514       1.45694394
      16.30000000      30.25961920      45.00000000      43.28621969       1.45694207
      16.40000000      30.42997501      45.00000000      43.28616577       1.45694025
      16.50000000      30.65691187      45.00000000      43.28606508       1.45693687
      16.60000000      30.82729156      45.00000000      43.28601472       1.45693517
      16.70000000      30.99768151      45.00000000      43.28596598       1.45693353
      16.80000000      31.16808177      45.00000000      43.28591888       1.45693194
      16.90000000      31.33849238      45.00000000      43.28587345       1.45693042
      17.00000000      31.50891341      45.00000000      43.28582972       1.45692894
      17.10000000      31.73593881      45.00000000      43.28574207       1.45692599
      17.20000000      31.90638450      45.00000000      43.28570227       1.45692465
      17.30000000      32.07684078      45.00000000      43.28566424       1.45692337
      17.40000000      32.24730770      45.00000000      43.28562801       1.45692215
      17.50000000      32.41778531      45.00000000      43.28559361       1.45692100
      17.60000000      32.58827365      45.00000000      43.28556107       1.45691990
      17.70000000      32.75877279      45.00000000      43.28553040       1.45691887
      17.80000000      32.98590423      45.00000000      43.28545958       1.45691649
      17.90000000      33.15642894      45.00000000      43.28543327       1.45691560
      18.00000000      33.32696461      45.00000000      43.28540892       1.45691478
      18.10000000      33.49751131      45.00000000      43.28538655       1.45691403
      18.20000000      33.66806907      45.00000000      43.28536619       1.45691334
      18.30000000      33.83863795      45.00000000      43.28534786       1.45691273
      18.40000000      34.00921801      45.00000000      43.28533159       1.45691218
      18.50000000      34.23645930      45.00000000      43.28527944       1.45691042
      18.60000000      34.40706582      45.00000000      43.28526795       1.45691004
      18.70000000      34.57768368      45.00000000      43.28525860       1.45690972
      18.80000000      34.74831295      45.00000000      43.28525142       1.45690948
      18.90000000      34.91895367      45.00000000      43.28524642       1.45690931
      19.00000000      35.08960589      45.00000000      43.28524363       1.45690922
      19.10000000      35.26026966      45.00000000      43.28524307       1.45690920
      19.20000000      35.43094503      45.00000000      43.28524478       1.45690926
      19.30000000      35.60163207      45.00000000      43.28524876       1.45690939
      19.40000000      35.82901860      45.00000000      43.28522302       1.45690852
      19.50000000      35.99973324      45.00000000      43.28523232       1.45690884
      19.60000000      36.17045971      45.00000000      43.28524399       1.45690923
      19.70000000      36.34119806      45.00000000      43.28525805       1.45690970
      19.80000000      36.51194835      45.00000000      43.28527451       1.45691026
      19.90000000      36.68271063      45.00000000      43.28529341       1.45691089
      20.00000000      36.85348494      45.00000000      43.28531476       1.45691161
      20.10000000      37.02427134      45.00000000      43.28533859       1.45691241
      20.20000000      37.19506989      45.00000000      43.28536493       1.45691330
      20.30000000      37.36588063      45.00000000      43.28539379       1.45691427
      20.40000000      37.53670361      45.00000000      43.28542520       1.45691533
      20.50000000      37.76427474      45.00000000      43.28543538       1.45691567
      20.60000000      37.93512672      45.00000000      43.28547273       1.45691693
      20.70000000      38.10599113      45.00000000      43.28551272       1.45691827
      20.80000000      38.27686800      45.00000000      43.28555535       1.45691971
      20.90000000      38.44775741      45.00000000      43.28560066       1.45692123
      21.00000000      38.61865939      45.00000000      43.28564866       1.45692285
      21.10000000      38.78957400      45.00000000      43.28569937       1.45692456
      21.20000000      38.96050130      45.00000000      43.28575282       1.45692636
      21.30000000      39.13144133      45.00000000      43.28580903       1.45692825
      21.40000000      39.30239415      45.00000000      43.28586803       1.45693023
      21.50000000      39.47335981      45.00000000      43.28592982       1.45693231
      21.60000000      39.64433836      45.00000000      43.28599445       1.45693449
      21.70000000      39.81532986      45.00000000      43.28606192       1.45693676
      21.80000000      39.98633436      45.00000000      43.28613226       1.45693913
      21.90000000      40.15735191      45.00000000      43.28620549       1.45694159
      22.00000000      40.32838256      45.00000000      43.28628163       1.45694415
      22.10000000      40.49942638      45.00000000      43.28636071       1.45694682
      22.20000000      40.67048341      45.00000000      43.28644273       1.45694958
      22.30000000      40.84155370      45.00000000      43.28652774       1.45695244
      22.40000000      41.01263731      45.00000000      43.28661574       1.45695540
      22.50000000      41.24056246      45.00000000      43.28670050       1.45695825
      22.60000000      41.41167761      45.00000000      43.28679551       1.45696145
      22.70000000      41.58280627      45.00000000      43.28689358       1.45696475
      22.80000000      41.75394848      45.00000000      43.28699473       1.45696816
      22.90000000      41.92510429      45.00000000      43.28709900       1.45697167
      23.00000000      42.09627378      45.00000000      43.28720639       1.45697528
      23.10000000      42.26745698      45.00000000      43.28731692       1.45697900
      23.20000000      42.43865395      45.00000000      43.28743062       1.45698283
      23.30000000      42.60986475      45.00000000      43.28754750       1.45698676
      23.40000000      42.78108943      45.00000000      43.28766759       1.45699080
      23.50000000      42.95232805      45.00000000      43.28779090       1.45699495
      23.60000000      43.12358066      45.00000000      43.28791746       1.45699921
      23.70000000      43.29484732      45.00000000      43.28804727       1.45700358
      23.80000000      43.46612808      45.00000000      43.28818037       1.45700806
      23.90000000      43.63742300      45.00000000      43.28831676       1.45701265
      24.00000000      43.80873214      45.00000000      43.28845648       1.45701736
      24.10000000      43.98005555      45.00000000      43.28859953       1.45702217
      24.20000000      44.15139329      45.00000000      43.28874593       1.45702710
      24.30000000      44.32274542      45.00000000      43.28889570       1.45703214
      24.40000000      44.43719026      45.00000000      43.28903571       1.45703685
      24.50000000      44.60856619      45.00000000      43.28919119       1.45704209
      24.60000000      44.77995667      45.00000000      43.28935008       1.45704743
      24.70000000      44.95136173      45.00000000      43.28951241       1.45705290
      24.80000000      45.12278145      45.00000000      43.28967819       1.45705848
      24.90000000      45.29421587      45.00000000      43.28984744       1.45706417
      25.00000000      45.46566506      45.00000000      43.29002018       1.45706999
      25.10000000      45.63712908      45.00000000      43.29019641       1.45707592
      25.20000000      45.80860798      45.00000000      43.29037617       1.45708197
      25.30000000      45.98010182      45.00000000      43.29055946       1.45708814
      25.40000000      46.15161066      45.00000000      43.29074631       1.45709443
      25.50000000      46.32313457      45.00000000      43.29093672       1.45710084
      25.60000000      46.49467359      45.00000000      43.29113071       1.45710737
      25.70000000      46.66622780      45.00000000      43.29132830       1.45711402
      25.80000000      46.83779725      45.00000000      43.29152950       1.45712079
      25.90000000      47.00938200      45.00000000      43.29173433       1.45712768
      26.00000000      47.18098211      45.00000000      43.29194281       1.45713470
      26.10000000      47.35259765      45.00000000      43.29215494       1.45714184
      26.20000000      47.52422867      45.00000000      43.29237074       1.45714910
      26.30000000      47.63885429      45.00000000      43.29255552       1.45715532
      26.40000000      47.81051093      45.00000000      43.29277750       1.45716279
      26.50000000      47.98218321      45.00000000      43.29300318       1.45717039
      26.60000000      48.15387121      45.00000000      43.29323258       1.45717811
      26.70000000      48.32557498      45.00000000      43.29346572       1.45718596
      26.80000000      48.49729459      45.00000000      43.29370260       1.45719393
      26.90000000      48.66903010      45.00000000      43.29394324       1.45720203
      27.00000000      48.84078158      45.00000000      43.29418766       1.45721026
      27.10000000      49.01254908      45.00000000      43.29443586       1.45721861
      27.20000000      49.18433268      45.00000000      43.29468786       1.45722709
      27.30000000      49.29905707      45.00000000      43.29489697       1.45723413
      27.40000000      49.47086728      45.00000000      43.29515532       1.45724283
      27.50000000      49.64269376      45.00000000      43.29541751       1.45725165
      27.60000000      49.81453657      45.00000000      43.29568353       1.45726061
      27.70000000      49.98639578      45.00000000      43.29595340       1.45726969
      27.80000000      50.15827145      45.00000000      43.29622713       1.45727890
      27.90000000      50.33016366      45.00000000      43.29650473       1.45728825
      28.00000000      50.50207246      45.00000000      43.29678621       1.45729772
      28.10000000      50.61687784      45.00000000      43.29701503       1.45730542
      28.20000000      50.78881409      45.00000000      43.29730299       1.45731512
      28.30000000      50.96076712      45.00000000      43.29759486       1.45732494
      28.40000000      51.13273700      45.00000000      43.29789064       1.45733489
      28.50000000      51.30472380      45.00000000      43.29819033       1.45734498
      28.60000000      51.47672758      45.00000000      43.29849396       1.45735520
      28.70000000      51.64874842      45.00000000      43.29880152       1.45736555
      28.80000000      51.76362622      45.00000000      43.29904771       1.45737384
      28.90000000      51.93567526      45.00000000      43.29936183       1.45738441
      29.00000000      52.10774155      45.00000000      43.29967991       1.45739512
      29.10000000      52.27982515      45.00000000      43.30000196       1.45740596
      29.20000000      52.45192614      45.00000000      43.30032797       1.45741693
      29.30000000      52.62404459      45.00000000      43.30065795       1.45742804
      29.40000000      52.79618057      45.00000000      43.30099191       1.45743928
      29.50000000      52.91113277      45.00000000      43.30125561       1.45744815
      29.60000000      53.08329774      45.00000000      43.30159620       1.45745962
      29.70000000      53.25548043      45.00000000      43.30194078       1.45747122
      29.80000000      53.42768093      45.00000000      43.30228935       1.45748295
      29.90000000      53.59989931      45.00000000      43.30264192       1.45749481
      30.00000000      53.71490470      45.00000000      43.30291792       1.45750410
      30.10000000      53.88715263      45.00000000      43.30327714       1.45751619
      30.20000000      54.05941863      45.00000000      43.30364037       1.45752842
      30.30000000      54.23170279      45.00000000      43.30400760       1.45754078
      30.40000000      54.40400518      45.00000000      43.30437885       1.45755328
      30.50000000      54.57632588      45.00000000      43.30475410       1.45756591
      30.60000000      54.69139732      45.00000000      43.30504505       1.45757570
      30.70000000      54.86374828      45.00000000      43.30542697       1.45758855
      30.80000000      55.03611775      45.00000000      43.30581289       1.45760154
      30.90000000      55.20850582      45.00000000      43.30620283       1.45761467
      31.00000000      55.38091256      45.00000000      43.30659679       1.45762793
      31.10000000      55.49603951      45.00000000      43.30690002       1.45763813
      31.20000000      55.66847711      45.00000000      43.30730061       1.45765162
      31.30000000      55.84093360      45.00000000      43.30770522       1.45766524
      31.40000000      56.01340906      45.00000000      43.30811383       1.45767899
      31.50000000      56.12858031      45.00000000      43.30842666       1.45768952
      31.60000000      56.30108710      45.00000000      43.30884189       1.45770350
      31.70000000      56.47361308      45.00000000      43.30926112       1.45771761
      31.80000000      56.64615832      45.00000000      43.30968434       1.45773185
      31.90000000      56.81872292      45.00000000      43.31011155       1.45774623
      32.00000000      56.93395163      45.00000000      43.31043653       1.45775717
      32.10000000      57.10654819      45.00000000      43.31087031       1.45777177
      32.20000000      57.27916432      45.00000000      43.31130807       1.45778650
      32.30000000      57.45180010      45.00000000      43.31174979       1.45780137
      32.40000000      57.56707468      45.00000000      43.31208422       1.45781263
      32.50000000      57.73974292      45.00000000      43.31253247       1.45782771
      32.60000000      57.91243105      45.00000000      43.31298466       1.45784293
      32.70000000      58.08513913      45.00000000      43.31344078       1.45785829
      32.80000000      58.20046029      45.00000000      43.31378457       1.45786986
      32.90000000      58.37320134      45.00000000      43.31424716       1.45788543
      33.00000000      58.54596259      45.00000000      43.31471365       1.45790113
      33.10000000      58.71874412      45.00000000      43.31518403       1.45791696
      33.20000000      58.83411256      45.00000000      43.31553706       1.45792884
      33.30000000      59.00692757      45.00000000      43.31601383       1.45794489
      33.40000000      59.17976309      45.00000000      43.31649446       1.45796107
      33.50000000      59.35261920      45.00000000      43.31697894       1.45797737
      33.60000000      59.46803564      45.00000000      43.31734106       1.45798956
      33.70000000      59.64092576      45.00000000      43.31783183       1.45800608
      33.80000000      59.81383671      45.00000000      43.31832641       1.45802273
      33.90000000      59.98676857      45.00000000      43.31882476       1.45803950
      34.00000000      60.10223373      45.00000000      43.31919583       1.45805199
      34.10000000      60.27520012      45.00000000      43.31970037       1.45806897
      34.20000000      60.44818766      45.00000000      43.32020865       1.45808608
      34.30000000      60.62119644      45.00000000      43.32072064       1.45810331
      34.40000000      60.73671105      45.00000000      43.32110046       1.45811610
      34.50000000      60.90975488      45.00000000      43.32161852       1.45813354
      34.60000000      61.08282018      45.00000000      43.32214023       1.45815110
      34.70000000      61.25590704      45.00000000      43.32266558       1.45816878
      34.80000000      61.37147184      45.00000000      43.32305393       1.45818185
      34.90000000      61.54459428      45.00000000      43.32358520       1.45819973
      35.00000000      61.71773851      45.00000000      43.32412003       1.45821773
      35.10000000      61.89090463      45.00000000      43.32465841       1.45823585
      35.20000000      62.00652034      45.00000000      43.32505506       1.45824920
      35.30000000      62.17972255      45.00000000      43.32559919       1.45826752
      35.40000000      62.35294688      45.00000000      43.32614679       1.45828595
      35.50000000      62.46859996      45.00000000      43.32654929       1.45829950
      35.60000000      62.64186076      45.00000000      43.32710250       1.45831812
      35.70000000      62.81514391      45.00000000      43.32765910       1.45833685
      35.80000000      62.98844949      45.00000000      43.32821906       1.45835570
      35.90000000      63.10415472      45.00000000      43.32862937       1.45836951
      36.00000000      63.27749729      45.00000000      43.32919474       1.45838854
      36.10000000      63.45086252      45.00000000      43.32976338       1.45840768
      36.20000000      63.62425050      45.00000000      43.33033524       1.45842693
      36.30000000      63.74000857      45.00000000      43.33075303       1.45844099
      36.40000000      63.91343404      45.00000000      43.33133008       1.45846041
      36.50000000      64.08688247      45.00000000      43.33191026       1.45847994
      36.60000000      64.26035397      45.00000000      43.33249352       1.45849957
      36.70000000      64.37616557      45.00000000      43.33291843       1.45851387
      36.80000000      64.54967503      45.00000000      43.33350664       1.45853367
      36.90000000      64.72320777      45.00000000      43.33409782       1.45855357
      37.00000000      64.89676387      45.00000000      43.33469192       1.45857356
      37.10000000      65.01262965      45.00000000      43.33512355       1.45858809
      37.20000000      65.18622419      45.00000000      43.33572232       1.45860825
      37.30000000      65.35984229      45.00000000      43.33632390       1.45862849
      37.40000000      65.53348403      45.00000000      43.33692823       1.45864883
      37.50000000      65.64940463      45.00000000      43.33736615       1.45866357
      37.60000000      65.82308526      45.00000000      43.33797485       1.45868406
      37.70000000      65.99678973      45.00000000      43.33858616       1.45870464
      37.80000000      66.17051812      45.00000000      43.33920005       1.45872530
      37.90000000      66.28649412      45.00000000      43.33964377       1.45874024
      38.00000000      66.46026182      45.00000000      43.34026169       1.45876103
      38.10000000      66.63405361      45.00000000      43.34088202       1.45878191
      38.20000000      66.80786957      45.00000000      43.34150472       1.45880287
      38.30000000      66.92390152      45.00000000      43.34195374       1.45881798
      38.40000000      67.09775719      45.00000000      43.34258011       1.45883907
      38.50000000      67.27163719      45.00000000      43.34320867       1.45886022
      38.60000000      67.44554159      45.00000000      43.34383938       1.45888145
      38.70000000      67.56162998      45.00000000      43.34429313       1.45889672
      38.80000000      67.73557445      45.00000000      43.34492712       1.45891806
      38.90000000      67.90954346      45.00000000      43.34556307       1.45893947
      39.00000000      68.08353707      45.00000000      43.34620091       1.45896094
      39.10000000      68.25755534      45.00000000      43.34684058       1.45898247
      39.20000000      68.37371634      45.00000000      43.34729951       1.45899791
      39.30000000      68.54777506      45.00000000      43.34794192       1.45901954
      39.40000000      68.72185858      45.00000000      43.34858597       1.45904121
      39.50000000      68.89596691      45.00000000      43.34923157       1.45906294
      39.60000000      69.07010013      45.00000000      43.34987866       1.45908472
      39.70000000      69.24425825      45.00000000      43.35052715       1.45910655
      39.80000000      69.36050826      45.00000000      43.35099093       1.45912216
      39.90000000      69.53470720      45.00000000      43.35164144       1.45914406
      40.00000000      69.70893114      45.00000000      43.35229314       1.45916599
