 # applied field (T), theta (degree), phi (degree), abs [muB/unitcell], abs [T]
       0.00000000       0.00000000       0.00000000      50.28671242       1.75112232
       0.10000000       0.22645775     360.00000000      50.28671107       1.75112227
       0.20000000       0.50937847     360.00000000      50.28670513       1.75112206
       0.30000000       0.73583699     360.00000000      50.28669752       1.75112180
       0.40000000       0.96229618     360.00000000      50.28668723       1.75112144
       0.50000000       1.18875626     360.00000000      50.28667425       1.75112099
       0.60000000       1.47168115     360.00000000      50.28665289       1.75112024
       0.70000000       1.69814399     360.00000000      50.28663368       1.75111958
       0.80000000       1.92460840     360.00000000      50.28661181       1.75111881
       0.90000000       2.15107458     360.00000000      50.28658728       1.75111796
       1.00000000       2.43400835     360.00000000      50.28655063       1.75111668
       1.10000000       2.66047929     360.00000000      50.28651994       1.75111561
       1.20000000       2.88695269     360.00000000      50.28648662       1.75111445
       1.30000000       3.16989646     360.00000000      50.28643835       1.75111277
       1.40000000       3.39637615     360.00000000      50.28639895       1.75111140
       1.50000000       3.62285897     360.00000000      50.28635696       1.75110994
       1.60000000       3.84934513     360.00000000      50.28631240       1.75110839
       1.70000000       4.13230617     360.00000000      50.28624928       1.75110619
       1.80000000       4.35880063     360.00000000      50.28619877       1.75110443
       1.90000000       4.58529912     360.00000000      50.28614575       1.75110258
       2.00000000       4.86827657     360.00000000      50.28607144       1.75110000
       2.10000000       5.09478491     360.00000000      50.28601260       1.75109795
       2.20000000       5.32129796     360.00000000      50.28595131       1.75109581
       2.30000000       5.54781593     360.00000000      50.28588757       1.75109359
       2.40000000       5.83081905     360.00000000      50.28579911       1.75109051
       2.50000000       6.05734889     360.00000000      50.28572976       1.75108810
       2.60000000       6.28388434     360.00000000      50.28565805       1.75108560
       2.70000000       6.56691034     360.00000000      50.28555906       1.75108215
       2.80000000       6.79345921     360.00000000      50.28548191       1.75107947
       2.90000000       7.02001438     360.00000000      50.28540249       1.75107670
       3.00000000       7.30306608     360.00000000      50.28529330       1.75107290
       3.10000000       7.52963624     360.00000000      50.28520864       1.75106995
       3.20000000       7.75621339     360.00000000      50.28512179       1.75106693
       3.30000000       8.03929362     360.00000000      50.28500279       1.75106278
       3.40000000       8.26588733     360.00000000      50.28491093       1.75105958
       3.50000000       8.49248873     360.00000000      50.28481698       1.75105631
       3.60000000       8.77560034     360.00000000      50.28468858       1.75105184
       3.70000000       9.00221987     360.00000000      50.28458986       1.75104840
       3.80000000       9.22884781     360.00000000      50.28448916       1.75104490
       3.90000000       9.51199365     360.00000000      50.28435182       1.75104011
       4.00000000       9.73864130     360.00000000      50.28424660       1.75103645
       4.10000000       9.96529805     360.00000000      50.28413953       1.75103272
       4.20000000      10.24848101     360.00000000      50.28399374       1.75102765
       4.30000000      10.47515908     360.00000000      50.28388243       1.75102377
       4.40000000      10.70184696     360.00000000      50.28376939       1.75101983
       4.50000000      10.98506993     360.00000000      50.28361568       1.75101448
       4.60000000      11.21178073     360.00000000      50.28349870       1.75101041
       4.70000000      11.43850206     360.00000000      50.28338013       1.75100628
       4.80000000      11.72176796     360.00000000      50.28321904       1.75100067
       4.90000000      11.94851382     360.00000000      50.28309685       1.75099641
       5.00000000      12.23181116     360.00000000      50.28293093       1.75099064
       5.10000000      12.45858268     360.00000000      50.28280534       1.75098626
       5.20000000      12.68536595     360.00000000      50.28267840       1.75098184
       5.30000000      12.96871120     360.00000000      50.28250613       1.75097584
       5.40000000      13.19552175     360.00000000      50.28237614       1.75097132
       5.50000000      13.47890191     360.00000000      50.28219978       1.75096517
       5.60000000      13.70574089     360.00000000      50.28206699       1.75096055
       5.70000000      13.98915739     360.00000000      50.28188684       1.75095428
       5.80000000      14.21602594     360.00000000      50.28175152       1.75094957
       5.90000000      14.44290798     360.00000000      50.28161523       1.75094482
       6.00000000      14.72637948     360.00000000      50.28143031       1.75093838
       6.10000000      14.95329274     360.00000000      50.28129187       1.75093356
       6.20000000      15.23680409     360.00000000      50.28110399       1.75092702
       6.30000000      15.46374973     360.00000000      50.28096366       1.75092213
       6.40000000      15.74730238     360.00000000      50.28077318       1.75091550
       6.50000000      15.97428157     360.00000000      50.28063125       1.75091055
       6.60000000      16.25787697     360.00000000      50.28043852       1.75090384
       6.70000000      16.48489085     360.00000000      50.28029528       1.75089885
       6.80000000      16.76853048     360.00000000      50.28010067       1.75089208
       6.90000000      16.99558022     360.00000000      50.27995641       1.75088705
       7.00000000      17.27926553     360.00000000      50.27976029       1.75088023
       7.10000000      17.56297689     360.00000000      50.27956341       1.75087337
       7.20000000      17.79008477     360.00000000      50.27941808       1.75086831
       7.30000000      18.07384410     360.00000000      50.27922029       1.75086142
       7.40000000      18.30099085     360.00000000      50.27907472       1.75085635
       7.50000000      18.58479963     360.00000000      50.27887642       1.75084945
       7.60000000      18.86863655     360.00000000      50.27867790       1.75084253
       7.70000000      19.09584612     360.00000000      50.27853251       1.75083747
       7.80000000      19.37973480     360.00000000      50.27833411       1.75083056
       7.90000000      19.60698626     360.00000000      50.27818929       1.75082552
       8.00000000      19.89092817     360.00000000      50.27799141       1.75081863
       8.10000000      20.17490034     360.00000000      50.27779390       1.75081175
       8.20000000      20.40221933     360.00000000      50.27765055       1.75080676
       8.30000000      20.68624705     360.00000000      50.27745421       1.75079992
       8.40000000      20.97030632     360.00000000      50.27725860       1.75079311
       8.50000000      21.25439759     360.00000000      50.27706386       1.75078633
       8.60000000      21.48181285     360.00000000      50.27692373       1.75078145
       8.70000000      21.76596281     360.00000000      50.27673105       1.75077474
       8.80000000      22.05014607     360.00000000      50.27653961       1.75076807
       8.90000000      22.33436308     360.00000000      50.27634954       1.75076145
       9.00000000      22.61861431     360.00000000      50.27616096       1.75075489
       9.10000000      22.90290020     360.00000000      50.27597403       1.75074838
       9.20000000      23.13047261     360.00000000      50.27584166       1.75074377
       9.30000000      23.41482197     360.00000000      50.27565817       1.75073738
       9.40000000      23.69920729     360.00000000      50.27547670       1.75073106
       9.50000000      23.98362901     360.00000000      50.27529737       1.75072481
       9.60000000      24.26808758     360.00000000      50.27512033       1.75071865
       9.70000000      24.55258346     360.00000000      50.27494570       1.75071257
       9.80000000      24.83711710     360.00000000      50.27477362       1.75070658
       9.90000000      25.12168895     360.00000000      50.27460423       1.75070068
      10.00000000      25.40629945     360.00000000      50.27443765       1.75069488
      10.10000000      25.69094905     360.00000000      50.27427403       1.75068918
      10.20000000      25.97563819     360.00000000      50.27411350       1.75068359
      10.30000000      26.31720060     360.00000000      50.27390748       1.75067641
      10.40000000      26.60197838     360.00000000      50.27375405       1.75067107
      10.50000000      26.88679710     360.00000000      50.27360414       1.75066585
      10.60000000      27.17165719     360.00000000      50.27345787       1.75066076
      10.70000000      27.51342759     360.00000000      50.27326909       1.75065418
      10.80000000      27.79838031     360.00000000      50.27313115       1.75064938
      10.90000000      28.08337576     360.00000000      50.27299726       1.75064472
      11.00000000      28.42531072     360.00000000      50.27282344       1.75063866
      11.10000000      28.71040173     360.00000000      50.27269879       1.75063432
      11.20000000      29.05245283     360.00000000      50.27253612       1.75062866
      11.30000000      29.33764138     360.00000000      50.27242131       1.75062466
      11.40000000      29.67981095     360.00000000      50.27227052       1.75061941
      11.50000000      29.96509895     360.00000000      50.27216614       1.75061578
      11.60000000      30.30738926     360.00000000      50.27202794       1.75061096
      11.70000000      30.64974644     360.00000000      50.27189684       1.75060640
      11.80000000      30.99217112     360.00000000      50.27177303       1.75060209
      11.90000000      31.33466393     360.00000000      50.27165672       1.75059804
      12.00000000      31.67722549     360.00000000      50.27154810       1.75059425
      12.10000000      32.01985638     360.00000000      50.27144737       1.75059075
      12.20000000      32.36255720     360.00000000      50.27135471       1.75058752
      12.30000000      32.70532849     360.00000000      50.27127031       1.75058458
      12.40000000      33.04817080     360.00000000      50.27119434       1.75058194
      12.50000000      33.44814892     360.00000000      50.27109926       1.75057862
      12.60000000      33.79114705     360.00000000      50.27104205       1.75057663
      12.70000000      34.19130867     360.00000000      50.27096907       1.75057409
      12.80000000      34.53446488     360.00000000      50.27093138       1.75057278
      12.90000000      34.93481251     360.00000000      50.27088138       1.75057104
      13.00000000      35.33526135     360.00000000      50.27084404       1.75056974
      13.10000000      35.73581201     360.00000000      50.27081958       1.75056888
      13.20000000      36.13646504     360.00000000      50.27080821       1.75056849
      13.30000000      36.53722094     360.00000000      50.27081012       1.75056856
      13.40000000      36.99527443     360.00000000      50.27081312       1.75056866
      13.50000000      37.45346395     360.00000000      50.27083378       1.75056938
      13.60000000      37.91179000     360.00000000      50.27087234       1.75057072
      13.70000000      38.37025299     360.00000000      50.27092901       1.75057270
      13.80000000      38.82885321     360.00000000      50.27100397       1.75057531
      13.90000000      39.34487407     360.00000000      50.27109630       1.75057852
      14.00000000      39.86106949     360.00000000      50.27121204       1.75058255
      14.10000000      40.37743941     360.00000000      50.27135135       1.75058740
      14.20000000      90.00000000     360.00000000      50.30859069       1.75188418
      14.30000000      90.00000000     360.00000000      50.30867693       1.75188718
      14.40000000      90.00000000     360.00000000      50.30876315       1.75189018
      14.50000000      90.00000000     360.00000000      50.30884936       1.75189319
      14.60000000      90.00000000     360.00000000      50.30893555       1.75189619
      14.70000000      90.00000000     360.00000000      50.30902173       1.75189919
      14.80000000      90.00000000     360.00000000      50.30910790       1.75190219
      14.90000000      90.00000000     360.00000000      50.30919405       1.75190519
      15.00000000      90.00000000     360.00000000      50.30928018       1.75190819
      15.10000000      90.00000000     360.00000000      50.30936631       1.75191119
      15.20000000      90.00000000     360.00000000      50.30945242       1.75191419
      15.30000000      90.00000000     360.00000000      50.30953851       1.75191719
      15.40000000      90.00000000     360.00000000      50.30962459       1.75192018
      15.50000000      90.00000000     360.00000000      50.30971066       1.75192318
      15.60000000      90.00000000     360.00000000      50.30979671       1.75192618
      15.70000000      90.00000000     360.00000000      50.30988275       1.75192917
      15.80000000      90.00000000     360.00000000      50.30996877       1.75193217
      15.90000000      90.00000000     360.00000000      50.31005479       1.75193516
      16.00000000      90.00000000     360.00000000      50.31014078       1.75193816
      16.10000000      90.00000000     360.00000000      50.31022676       1.75194115
      16.20000000      90.00000000     360.00000000      50.31031273       1.75194415
      16.30000000      90.00000000     360.00000000      50.31039869       1.75194714
      16.40000000      90.00000000     360.00000000      50.31048463       1.75195013
      16.50000000      90.00000000     360.00000000      50.31057056       1.75195312
      16.60000000      90.00000000     360.00000000      50.31065647       1.75195612
      16.70000000      90.00000000     360.00000000      50.31074237       1.75195911
      16.80000000      90.00000000     360.00000000      50.31082825       1.75196210
      16.90000000      90.00000000     360.00000000      50.31091412       1.75196509
      17.00000000      90.00000000     360.00000000      50.31099998       1.75196808
      17.10000000      90.00000000     360.00000000      50.31108582       1.75197107
      17.20000000      90.00000000     360.00000000      50.31117165       1.75197406
      17.30000000      90.00000000     360.00000000      50.31125747       1.75197704
      17.40000000      90.00000000     360.00000000      50.31134327       1.75198003
      17.50000000      90.00000000     360.00000000      50.31142906       1.75198302
      17.60000000      90.00000000     360.00000000      50.31151483       1.75198601
      17.70000000      90.00000000     360.00000000      50.31160059       1.75198899
      17.80000000      90.00000000     360.00000000      50.31168634       1.75199198
      17.90000000      90.00000000     360.00000000      50.31177207       1.75199496
      18.00000000      90.00000000     360.00000000      50.31185779       1.75199795
      18.10000000      90.00000000     360.00000000      50.31194350       1.75200093
      18.20000000      90.00000000     360.00000000      50.31202919       1.75200392
      18.30000000      90.00000000     360.00000000      50.31211487       1.75200690
      18.40000000      90.00000000     360.00000000      50.31220053       1.75200988
      18.50000000      90.00000000     360.00000000      50.31228618       1.75201287
      18.60000000      90.00000000     360.00000000      50.31237182       1.75201585
      18.70000000      90.00000000     360.00000000      50.31245745       1.75201883
      18.80000000      90.00000000     360.00000000      50.31254306       1.75202181
      18.90000000      90.00000000     360.00000000      50.31262865       1.75202479
      19.00000000      90.00000000     360.00000000      50.31271423       1.75202777
      19.10000000      90.00000000     360.00000000      50.31279980       1.75203075
      19.20000000      90.00000000     360.00000000      50.31288536       1.75203373
      19.30000000      90.00000000     360.00000000      50.31297090       1.75203671
      19.40000000      90.00000000     360.00000000      50.31305643       1.75203969
      19.50000000      90.00000000     360.00000000      50.31314194       1.75204267
      19.60000000      90.00000000     360.00000000      50.31322744       1.75204564
      19.70000000      90.00000000     360.00000000      50.31331293       1.75204862
      19.80000000      90.00000000     360.00000000      50.31339841       1.75205160
      19.90000000      90.00000000     360.00000000      50.31348387       1.75205457
      20.00000000      90.00000000     360.00000000      50.31356931       1.75205755
      20.10000000      90.00000000     360.00000000      50.31365475       1.75206052
      20.20000000      90.00000000     360.00000000      50.31374017       1.75206350
      20.30000000      90.00000000     360.00000000      50.31382557       1.75206647
      20.40000000      90.00000000     360.00000000      50.31391097       1.75206945
      20.50000000      90.00000000     360.00000000      50.31399635       1.75207242
      20.60000000      90.00000000     360.00000000      50.31408171       1.75207539
      20.70000000      90.00000000     360.00000000      50.31416706       1.75207836
      20.80000000      90.00000000     360.00000000      50.31425240       1.75208134
      20.90000000      90.00000000     360.00000000      50.31433773       1.75208431
      21.00000000      90.00000000     360.00000000      50.31442304       1.75208728
      21.10000000      90.00000000     360.00000000      50.31450834       1.75209025
      21.20000000      90.00000000     360.00000000      50.31459363       1.75209322
      21.30000000      90.00000000     360.00000000      50.31467890       1.75209619
      21.40000000      90.00000000     360.00000000      50.31476416       1.75209916
      21.50000000      90.00000000     360.00000000      50.31484941       1.75210213
      21.60000000      90.00000000     360.00000000      50.31493464       1.75210509
      21.70000000      90.00000000     360.00000000      50.31501986       1.75210806
      21.80000000      90.00000000     360.00000000      50.31510506       1.75211103
      21.90000000      90.00000000     360.00000000      50.31519026       1.75211399
      22.00000000      90.00000000     360.00000000      50.31527544       1.75211696
      22.10000000      90.00000000     360.00000000      50.31536060       1.75211993
      22.20000000      90.00000000     360.00000000      50.31544576       1.75212289
      22.30000000      90.00000000     360.00000000      50.31553090       1.75212586
      22.40000000      90.00000000     360.00000000      50.31561602       1.75212882
      22.50000000      90.00000000     360.00000000      50.31570114       1.75213178
      22.60000000      90.00000000     360.00000000      50.31578624       1.75213475
      22.70000000      90.00000000     360.00000000      50.31587132       1.75213771
      22.80000000      90.00000000     360.00000000      50.31595640       1.75214067
      22.90000000      90.00000000     360.00000000      50.31604146       1.75214364
      23.00000000      90.00000000     360.00000000      50.31612651       1.75214660
      23.10000000      90.00000000     360.00000000      50.31621154       1.75214956
      23.20000000      90.00000000     360.00000000      50.31629656       1.75215252
      23.30000000      90.00000000     360.00000000      50.31638157       1.75215548
      23.40000000      90.00000000     360.00000000      50.31646656       1.75215844
      23.50000000      90.00000000     360.00000000      50.31655155       1.75216140
      23.60000000      90.00000000     360.00000000      50.31663652       1.75216436
      23.70000000      90.00000000     360.00000000      50.31672147       1.75216732
      23.80000000      90.00000000     360.00000000      50.31680641       1.75217027
      23.90000000      90.00000000     360.00000000      50.31689134       1.75217323
      24.00000000      90.00000000     360.00000000      50.31697626       1.75217619
      24.10000000      90.00000000     360.00000000      50.31706117       1.75217914
      24.20000000      90.00000000     360.00000000      50.31714606       1.75218210
      24.30000000      90.00000000     360.00000000      50.31723093       1.75218506
      24.40000000      90.00000000     360.00000000      50.31731580       1.75218801
      24.50000000      90.00000000     360.00000000      50.31740065       1.75219097
      24.60000000      90.00000000     360.00000000      50.31748549       1.75219392
      24.70000000      90.00000000     360.00000000      50.31757032       1.75219687
      24.80000000      90.00000000     360.00000000      50.31765513       1.75219983
      24.90000000      90.00000000     360.00000000      50.31773993       1.75220278
      25.00000000      90.00000000     360.00000000      50.31782472       1.75220573
      25.10000000      90.00000000     360.00000000      50.31790949       1.75220869
      25.20000000      90.00000000     360.00000000      50.31799425       1.75221164
      25.30000000      90.00000000     360.00000000      50.31807900       1.75221459
      25.40000000      90.00000000     360.00000000      50.31816374       1.75221754
      25.50000000      90.00000000     360.00000000      50.31824846       1.75222049
      25.60000000      90.00000000     360.00000000      50.31833317       1.75222344
      25.70000000      90.00000000     360.00000000      50.31841787       1.75222639
      25.80000000      90.00000000     360.00000000      50.31850255       1.75222934
      25.90000000      90.00000000     360.00000000      50.31858722       1.75223229
      26.00000000      90.00000000     360.00000000      50.31867188       1.75223523
      26.10000000      90.00000000     360.00000000      50.31875653       1.75223818
      26.20000000      90.00000000     360.00000000      50.31884116       1.75224113
      26.30000000      90.00000000     360.00000000      50.31892578       1.75224408
      26.40000000      90.00000000     360.00000000      50.31901039       1.75224702
      26.50000000      90.00000000     360.00000000      50.31909499       1.75224997
      26.60000000      90.00000000     360.00000000      50.31917957       1.75225291
      26.70000000      90.00000000     360.00000000      50.31926414       1.75225586
      26.80000000      90.00000000     360.00000000      50.31934870       1.75225880
      26.90000000      90.00000000     360.00000000      50.31943324       1.75226175
      27.00000000      90.00000000     360.00000000      50.31951777       1.75226469
      27.10000000      90.00000000     360.00000000      50.31960229       1.75226763
      27.20000000      90.00000000     360.00000000      50.31968680       1.75227058
      27.30000000      90.00000000     360.00000000      50.31977129       1.75227352
      27.40000000      90.00000000     360.00000000      50.31985578       1.75227646
      27.50000000      90.00000000     360.00000000      50.31994024       1.75227940
      27.60000000      90.00000000     360.00000000      50.32002470       1.75228234
      27.70000000      90.00000000     360.00000000      50.32010914       1.75228528
      27.80000000      90.00000000     360.00000000      50.32019357       1.75228822
      27.90000000      90.00000000     360.00000000      50.32027799       1.75229116
      28.00000000      90.00000000     360.00000000      50.32036240       1.75229410
      28.10000000      90.00000000     360.00000000      50.32044679       1.75229704
      28.20000000      90.00000000     360.00000000      50.32053117       1.75229998
      28.30000000      90.00000000     360.00000000      50.32061554       1.75230292
      28.40000000      90.00000000     360.00000000      50.32069990       1.75230586
      28.50000000      90.00000000     360.00000000      50.32078424       1.75230879
      28.60000000      90.00000000     360.00000000      50.32086857       1.75231173
      28.70000000      90.00000000     360.00000000      50.32095289       1.75231467
      28.80000000      90.00000000     360.00000000      50.32103720       1.75231760
      28.90000000      90.00000000     360.00000000      50.32112149       1.75232054
      29.00000000      90.00000000     360.00000000      50.32120577       1.75232347
      29.10000000      90.00000000     360.00000000      50.32129004       1.75232641
      29.20000000      90.00000000     360.00000000      50.32137430       1.75232934
      29.30000000      90.00000000     360.00000000      50.32145854       1.75233227
      29.40000000      90.00000000     360.00000000      50.32154277       1.75233521
      29.50000000      90.00000000     360.00000000      50.32162699       1.75233814
      29.60000000      90.00000000     360.00000000      50.32171120       1.75234107
      29.70000000      90.00000000     360.00000000      50.32179539       1.75234400
      29.80000000      90.00000000     360.00000000      50.32187957       1.75234693
      29.90000000      90.00000000     360.00000000      50.32196374       1.75234987
      30.00000000      90.00000000     360.00000000      50.32204790       1.75235280
      30.10000000      90.00000000     360.00000000      50.32213205       1.75235573
      30.20000000      90.00000000     360.00000000      50.32221618       1.75235866
      30.30000000      90.00000000     360.00000000      50.32230030       1.75236159
      30.40000000      90.00000000     360.00000000      50.32238441       1.75236451
      30.50000000      90.00000000     360.00000000      50.32246850       1.75236744
      30.60000000      90.00000000     360.00000000      50.32255259       1.75237037
      30.70000000      90.00000000     360.00000000      50.32263666       1.75237330
      30.80000000      90.00000000     360.00000000      50.32272072       1.75237623
      30.90000000      90.00000000     360.00000000      50.32280477       1.75237915
      31.00000000      90.00000000     360.00000000      50.32288880       1.75238208
      31.10000000      90.00000000     360.00000000      50.32297282       1.75238500
      31.20000000      90.00000000     360.00000000      50.32305683       1.75238793
      31.30000000      90.00000000     360.00000000      50.32314083       1.75239086
      31.40000000      90.00000000     360.00000000      50.32322482       1.75239378
      31.50000000      90.00000000     360.00000000      50.32330879       1.75239670
      31.60000000      90.00000000     360.00000000      50.32339276       1.75239963
      31.70000000      90.00000000     360.00000000      50.32347671       1.75240255
      31.80000000      90.00000000     360.00000000      50.32356064       1.75240547
      31.90000000      90.00000000     360.00000000      50.32364457       1.75240840
      32.00000000      90.00000000     360.00000000      50.32372848       1.75241132
      32.10000000      90.00000000     360.00000000      50.32381238       1.75241424
      32.20000000      90.00000000     360.00000000      50.32389627       1.75241716
      32.30000000      90.00000000     360.00000000      50.32398015       1.75242008
      32.40000000      90.00000000     360.00000000      50.32406402       1.75242300
      32.50000000      90.00000000     360.00000000      50.32414787       1.75242592
      32.60000000      90.00000000     360.00000000      50.32423171       1.75242884
      32.70000000      90.00000000     360.00000000      50.32431554       1.75243176
      32.80000000      90.00000000     360.00000000      50.32439936       1.75243468
      32.90000000      90.00000000     360.00000000      50.32448316       1.75243760
      33.00000000      90.00000000     360.00000000      50.32456696       1.75244052
      33.10000000      90.00000000     360.00000000      50.32465074       1.75244343
      33.20000000      90.00000000     360.00000000      50.32473451       1.75244635
      33.30000000      90.00000000     360.00000000      50.32481827       1.75244927
      33.40000000      90.00000000     360.00000000      50.32490201       1.75245218
      33.50000000      90.00000000     360.00000000      50.32498574       1.75245510
      33.60000000      90.00000000     360.00000000      50.32506947       1.75245802
      33.70000000      90.00000000     360.00000000      50.32515318       1.75246093
      33.80000000      90.00000000     360.00000000      50.32523687       1.75246385
      33.90000000      90.00000000     360.00000000      50.32532056       1.75246676
      34.00000000      90.00000000     360.00000000      50.32540423       1.75246967
      34.10000000      90.00000000     360.00000000      50.32548790       1.75247259
      34.20000000      90.00000000     360.00000000      50.32557155       1.75247550
      34.30000000      90.00000000     360.00000000      50.32565519       1.75247841
      34.40000000      90.00000000     360.00000000      50.32573881       1.75248132
      34.50000000      90.00000000     360.00000000      50.32582243       1.75248424
      34.60000000      90.00000000     360.00000000      50.32590603       1.75248715
      34.70000000      90.00000000     360.00000000      50.32598962       1.75249006
      34.80000000      90.00000000     360.00000000      50.32607320       1.75249297
      34.90000000      90.00000000     360.00000000      50.32615677       1.75249588
      35.00000000      90.00000000     360.00000000      50.32624033       1.75249879
      35.10000000      90.00000000     360.00000000      50.32632387       1.75250170
      35.20000000      90.00000000     360.00000000      50.32640741       1.75250461
      35.30000000      90.00000000     360.00000000      50.32649093       1.75250752
      35.40000000      90.00000000     360.00000000      50.32657444       1.75251042
      35.50000000      90.00000000     360.00000000      50.32665794       1.75251333
      35.60000000      90.00000000     360.00000000      50.32674142       1.75251624
      35.70000000      90.00000000     360.00000000      50.32682490       1.75251914
      35.80000000      90.00000000     360.00000000      50.32690836       1.75252205
      35.90000000      90.00000000     360.00000000      50.32699181       1.75252496
      36.00000000      90.00000000     360.00000000      50.32707525       1.75252786
      36.10000000      90.00000000     360.00000000      50.32715868       1.75253077
      36.20000000      90.00000000     360.00000000      50.32724209       1.75253367
      36.30000000      90.00000000     360.00000000      50.32732550       1.75253658
      36.40000000      90.00000000     360.00000000      50.32740889       1.75253948
      36.50000000      90.00000000     360.00000000      50.32749227       1.75254238
      36.60000000      90.00000000     360.00000000      50.32757564       1.75254529
      36.70000000      90.00000000     360.00000000      50.32765900       1.75254819
      36.80000000      90.00000000     360.00000000      50.32774235       1.75255109
      36.90000000      90.00000000     360.00000000      50.32782568       1.75255399
      37.00000000      90.00000000     360.00000000      50.32790901       1.75255690
      37.10000000      90.00000000     360.00000000      50.32799232       1.75255980
      37.20000000      90.00000000     360.00000000      50.32807562       1.75256270
      37.30000000      90.00000000     360.00000000      50.32815891       1.75256560
      37.40000000      90.00000000     360.00000000      50.32824219       1.75256850
      37.50000000      90.00000000     360.00000000      50.32832546       1.75257140
      37.60000000      90.00000000     360.00000000      50.32840871       1.75257430
      37.70000000      90.00000000     360.00000000      50.32849195       1.75257720
      37.80000000      90.00000000     360.00000000      50.32857519       1.75258009
      37.90000000      90.00000000     360.00000000      50.32865841       1.75258299
      38.00000000      90.00000000     360.00000000      50.32874162       1.75258589
      38.10000000      90.00000000     360.00000000      50.32882482       1.75258879
      38.20000000      90.00000000     360.00000000      50.32890800       1.75259168
      38.30000000      90.00000000     360.00000000      50.32899118       1.75259458
      38.40000000      90.00000000     360.00000000      50.32907434       1.75259748
      38.50000000      90.00000000     360.00000000      50.32915749       1.75260037
      38.60000000      90.00000000     360.00000000      50.32924063       1.75260327
      38.70000000      90.00000000     360.00000000      50.32932376       1.75260616
      38.80000000      90.00000000     360.00000000      50.32940688       1.75260906
      38.90000000      90.00000000     360.00000000      50.32948999       1.75261195
      39.00000000      90.00000000     360.00000000      50.32957309       1.75261484
      39.10000000      90.00000000     360.00000000      50.32965617       1.75261774
      39.20000000      90.00000000     360.00000000      50.32973924       1.75262063
      39.30000000      90.00000000     360.00000000      50.32982231       1.75262352
      39.40000000      90.00000000     360.00000000      50.32990536       1.75262641
      39.50000000      90.00000000     360.00000000      50.32998840       1.75262931
      39.60000000      90.00000000     360.00000000      50.33007142       1.75263220
      39.70000000      90.00000000     360.00000000      50.33015444       1.75263509
      39.80000000      90.00000000     360.00000000      50.33023745       1.75263798
      39.90000000      90.00000000     360.00000000      50.33032044       1.75264087
      40.00000000      90.00000000     360.00000000      50.33040343       1.75264376
