 # applied field (T), theta (degree), phi (degree), abs for RE 3-4
     0.00000   179.00479   135.00000     0.10072   179.00479    45.00000     0.10072
     0.10000   177.81111   197.60643     0.10081   179.49651   225.00000     0.10078
     0.20000   175.98817   210.28184     0.10093   178.00637   225.00000     0.10088
     0.30000   174.10129   214.92867     0.10108   176.52643   225.00000     0.10100
     0.40000   172.20561   217.30408     0.10127   175.05817   225.00000     0.10114
     0.50000   170.31494   218.74092     0.10149   173.60294   225.00000     0.10132
     0.60000   168.43507   219.70246     0.10173   172.16191   225.00000     0.10151
     0.70000   166.47916   220.41960     0.10201   170.66592   225.00000     0.10174
     0.80000   164.63043   220.93053     0.10230   169.25685   225.00000     0.10198
     0.90000   162.71120   221.34697     0.10261   167.79595   225.00000     0.10224
     1.00000   160.81285   221.67866     0.10294   166.35386   225.00000     0.10252
     1.10000   158.84996   221.96112     0.10328   164.86417   225.00000     0.10282
     1.20000   156.99673   222.18546     0.10361   163.46133   225.00000     0.10311
     1.30000   154.99790   222.39257     0.10397   161.94780   225.00000     0.10344
     1.40000   153.10914   222.56214     0.10429   160.52065   225.00000     0.10375
     1.50000   151.16330   222.71598     0.10461   159.05048   225.00000     0.10408
     1.60000   149.16352   222.85639     0.10492   157.53916   225.00000     0.10441
     1.70000   147.19230   222.98053     0.10518   156.04952   225.00000     0.10473
     1.80000   145.17082   223.09585     0.10541   154.51971   225.00000     0.10506
     1.90000   143.10206   223.20350     0.10558   152.95049   225.00000     0.10537
     2.00000   140.98908   223.30444     0.10569   151.34205   225.00000     0.10567
     2.10000   138.83516   223.39951     0.10572   149.69399   225.00000     0.10596
     2.20000   136.64392   223.48938     0.10565   148.00519   225.00000     0.10622
     2.30000   134.34775   223.57727     0.10546   146.21673   225.00000     0.10645
     2.40000   132.02621   223.66052     0.10514   144.38378   225.00000     0.10665
     2.50000   129.61675   223.74179     0.10465   142.44603   225.00000     0.10680
     2.60000   127.06527   223.82289     0.10397   140.34263   225.00000     0.10691
     2.70000   124.45751   223.90120     0.10308   138.12338   225.00000     0.10695
     2.80000   121.62560   223.98172     0.10190   135.60910   225.00000     0.10692
     2.90000   118.67511   224.06137     0.10044   132.84130   225.00000     0.10681
     3.00000   115.48520   224.14363     0.09860   129.62567   225.00000     0.10660
     3.10000   112.04085   224.22958     0.09635   125.80874   225.00000     0.10628
     3.20000   108.19289   224.32523     0.09362   120.97199   225.00000     0.10585
     3.30000   103.69730   224.44474     0.09041   114.26819   225.00000     0.10542
     3.40000    97.46564   224.65447     0.08723   102.52644   225.00000     0.10558
     3.50000    90.00000   225.00000     0.08908    86.30832   225.00000     0.10844
     3.60000    90.00000   225.00000     0.08897    86.30470   225.00000     0.10832
     3.70000    90.00000   225.00000     0.08885    86.30108   225.00000     0.10820
     3.80000    90.00000   225.00000     0.08874    86.29745   225.00000     0.10808
     3.90000    90.00000   225.00000     0.08863    86.29381   225.00000     0.10796
     4.00000    90.00000   225.00000     0.08852    86.29016   225.00000     0.10784
     4.10000    90.00000   225.00000     0.08840    86.28651   225.00000     0.10772
     4.20000    90.00000   225.00000     0.08829    86.28285   225.00000     0.10760
     4.30000    90.00000   225.00000     0.08818    86.27918   225.00000     0.10748
     4.40000    90.00000   225.00000     0.08807    86.27550   225.00000     0.10735
     4.50000    90.00000   225.00000     0.08795    86.27182   225.00000     0.10723
     4.60000    90.00000   225.00000     0.08784    86.26813   225.00000     0.10711
     4.70000    90.00000   225.00000     0.08773    86.26443   225.00000     0.10699
     4.80000    90.00000   225.00000     0.08762    86.26072   225.00000     0.10687
     4.90000    90.00000   225.00000     0.08750    86.25700   225.00000     0.10675
     5.00000    90.00000   225.00000     0.08739    86.25328   225.00000     0.10663
     5.10000    90.00000   225.00000     0.08728    86.24955   225.00000     0.10651
     5.20000    90.00000   225.00000     0.08717    86.24581   225.00000     0.10639
     5.30000    90.00000   225.00000     0.08705    86.24206   225.00000     0.10627
     5.40000    90.00000   225.00000     0.08694    86.23831   225.00000     0.10615
     5.50000    90.00000   225.00000     0.08683    86.23455   225.00000     0.10603
     5.60000    90.00000   225.00000     0.08672    86.23078   225.00000     0.10591
     5.70000    90.00000   225.00000     0.08660    86.22700   225.00000     0.10579
     5.80000    90.00000   225.00000     0.08649    86.22321   225.00000     0.10567
     5.90000    90.00000   225.00000     0.08638    86.21942   225.00000     0.10555
     6.00000    90.00000   225.00000     0.08627    86.21562   225.00000     0.10543
     6.10000    90.00000   225.00000     0.08616    86.21181   225.00000     0.10531
     6.20000    90.00000   225.00000     0.08604    86.20799   225.00000     0.10519
     6.30000    90.00000   225.00000     0.08593    86.20416   225.00000     0.10507
     6.40000    90.00000   225.00000     0.08582    86.20033   225.00000     0.10495
     6.50000    90.00000   225.00000     0.08571    86.19648   225.00000     0.10483
     6.60000    90.00000   225.00000     0.08559    86.19263   225.00000     0.10471
     6.70000    90.00000   225.00000     0.08548    86.18877   225.00000     0.10459
     6.80000    90.00000   225.00000     0.08537    86.18490   225.00000     0.10447
     6.90000    90.00000   225.00000     0.08526    86.18103   225.00000     0.10435
     7.00000    90.00000   225.00000     0.08514    86.17714   225.00000     0.10423
     7.10000    90.00000   225.00000     0.08503    86.17325   225.00000     0.10411
     7.20000    90.00000   225.00000     0.08492    86.16935   225.00000     0.10399
     7.30000    90.00000   225.00000     0.08481    86.16544   225.00000     0.10387
     7.40000    90.00000   225.00000     0.08470    86.16152   225.00000     0.10375
     7.50000    90.00000   225.00000     0.08458    86.15760   225.00000     0.10363
     7.60000    90.00000   225.00000     0.08447    86.15366   225.00000     0.10351
     7.70000    90.00000   225.00000     0.08436    86.14972   225.00000     0.10339
     7.80000    90.00000   225.00000     0.08425    86.14576   225.00000     0.10327
     7.90000    90.00000   225.00000     0.08413    86.14180   225.00000     0.10315
     8.00000    90.00000   225.00000     0.08402    86.13783   225.00000     0.10303
     8.10000    90.00000   225.00000     0.08391    86.13386   225.00000     0.10291
     8.20000    90.00000   225.00000     0.08380    86.12987   225.00000     0.10279
     8.30000    90.00000   225.00000     0.08368    86.12588   225.00000     0.10267
     8.40000    90.00000   225.00000     0.08357    86.12187   225.00000     0.10255
     8.50000    90.00000   225.00000     0.08346    86.11786   225.00000     0.10243
     8.60000    90.00000   225.00000     0.08335    86.11384   225.00000     0.10231
     8.70000    90.00000   225.00000     0.08323    86.10981   225.00000     0.10219
     8.80000    90.00000   225.00000     0.08312    86.10577   225.00000     0.10207
     8.90000    90.00000   225.00000     0.08301    86.10172   225.00000     0.10195
     9.00000    90.00000   225.00000     0.08290    86.09766   225.00000     0.10183
     9.10000    90.00000   225.00000     0.08278    86.09360   225.00000     0.10171
     9.20000    90.00000   225.00000     0.08267    86.08952   225.00000     0.10159
     9.30000    90.00000   225.00000     0.08256    86.08544   225.00000     0.10147
     9.40000    90.00000   225.00000     0.08245    86.08134   225.00000     0.10135
     9.50000    90.00000   225.00000     0.08234    86.07724   225.00000     0.10123
     9.60000    90.00000   225.00000     0.08222    86.07313   225.00000     0.10111
     9.70000    90.00000   225.00000     0.08211    86.06901   225.00000     0.10099
     9.80000    90.00000   225.00000     0.08200    86.06488   225.00000     0.10087
     9.90000    90.00000   225.00000     0.08189    86.06074   225.00000     0.10075
    10.00000    90.00000   225.00000     0.08177    86.05660   225.00000     0.10063
    10.10000    90.00000   225.00000     0.08166    86.05244   225.00000     0.10051
    10.20000    90.00000   225.00000     0.08155    86.04827   225.00000     0.10039
    10.30000    90.00000   225.00000     0.08144    86.04410   225.00000     0.10027
    10.40000    90.00000   225.00000     0.08133    86.03991   225.00000     0.10015
    10.50000    90.00000   225.00000     0.08121    86.03572   225.00000     0.10003
    10.60000    90.00000   225.00000     0.08110    86.03151   225.00000     0.09991
    10.70000    90.00000   225.00000     0.08099    86.02730   225.00000     0.09979
    10.80000    90.00000   225.00000     0.08088    86.02308   225.00000     0.09967
    10.90000    90.00000   225.00000     0.08076    86.01885   225.00000     0.09955
    11.00000    90.00000   225.00000     0.08065    86.01460   225.00000     0.09943
    11.10000    90.00000   225.00000     0.08054    86.01035   225.00000     0.09931
    11.20000    90.00000   225.00000     0.08043    86.00609   225.00000     0.09919
    11.30000    90.00000   225.00000     0.08032    86.00182   225.00000     0.09907
    11.40000    90.00000   225.00000     0.08020    85.99754   225.00000     0.09896
    11.50000    90.00000   225.00000     0.08009    85.99325   225.00000     0.09884
    11.60000    90.00000   225.00000     0.07998    85.98895   225.00000     0.09872
    11.70000    90.00000   225.00000     0.07987    85.98464   225.00000     0.09860
    11.80000    90.00000   225.00000     0.07976    85.98032   225.00000     0.09848
    11.90000    90.00000   225.00000     0.07964    85.97599   225.00000     0.09836
    12.00000    90.00000   225.00000     0.07953    85.97165   225.00000     0.09824
    12.10000    90.00000   225.00000     0.07942    85.96731   225.00000     0.09812
    12.20000    90.00000   225.00000     0.07931    85.96295   225.00000     0.09800
    12.30000    90.00000   225.00000     0.07919    85.95858   225.00000     0.09788
    12.40000    90.00000   225.00000     0.07908    85.95420   225.00000     0.09776
    12.50000    90.00000   225.00000     0.07897    85.94981   225.00000     0.09764
    12.60000    90.00000   225.00000     0.07886    85.94541   225.00000     0.09752
    12.70000    90.00000   225.00000     0.07875    85.94100   225.00000     0.09740
    12.80000    90.00000   225.00000     0.07863    85.93658   225.00000     0.09728
    12.90000    90.00000   225.00000     0.07852    85.93215   225.00000     0.09716
    13.00000    90.00000   225.00000     0.07841    85.92771   225.00000     0.09704
    13.10000    90.00000   225.00000     0.07830    85.92326   225.00000     0.09692
    13.20000    90.00000   225.00000     0.07819    85.91880   225.00000     0.09680
    13.30000    90.00000   225.00000     0.07807    85.91433   225.00000     0.09668
    13.40000    90.00000   225.00000     0.07796    85.90985   225.00000     0.09657
    13.50000    90.00000   225.00000     0.07785    85.90536   225.00000     0.09645
    13.60000    90.00000   225.00000     0.07774    85.90086   225.00000     0.09633
    13.70000    90.00000   225.00000     0.07763    85.89635   225.00000     0.09621
    13.80000    90.00000   225.00000     0.07751    85.89182   225.00000     0.09609
    13.90000    90.00000   225.00000     0.07740    85.88729   225.00000     0.09597
    14.00000    90.00000   225.00000     0.07729    85.88275   225.00000     0.09585
    14.10000    90.00000   225.00000     0.07718    85.87819   225.00000     0.09573
    14.20000    90.00000   225.00000     0.07707    85.87363   225.00000     0.09561
    14.30000    90.00000   225.00000     0.07695    85.86905   225.00000     0.09549
    14.40000    90.00000   225.00000     0.07684    85.86446   225.00000     0.09537
    14.50000    90.00000   225.00000     0.07673    85.85986   225.00000     0.09525
    14.60000    90.00000   225.00000     0.07662    85.85526   225.00000     0.09513
    14.70000    90.00000   225.00000     0.07651    85.85064   225.00000     0.09501
    14.80000    90.00000   225.00000     0.07639    85.84601   225.00000     0.09490
    14.90000    90.00000   225.00000     0.07628    85.84136   225.00000     0.09478
    15.00000    90.00000   225.00000     0.07617    85.83671   225.00000     0.09466
    15.10000    90.00000   225.00000     0.07606    85.83205   225.00000     0.09454
    15.20000    90.00000   225.00000     0.07595    85.82737   225.00000     0.09442
    15.30000    90.00000   225.00000     0.07583    85.82269   225.00000     0.09430
    15.40000    90.00000   225.00000     0.07572    85.81799   225.00000     0.09418
    15.50000    90.00000   225.00000     0.07561    85.81328   225.00000     0.09406
    15.60000    90.00000   225.00000     0.07550    85.80856   225.00000     0.09394
    15.70000    90.00000   225.00000     0.07539    85.80383   225.00000     0.09382
    15.80000    90.00000   225.00000     0.07528    85.79909   225.00000     0.09370
    15.90000    90.00000   225.00000     0.07516    85.79434   225.00000     0.09358
    16.00000    90.00000   225.00000     0.07505    85.78957   225.00000     0.09347
    16.10000    90.00000   225.00000     0.07494    85.78480   225.00000     0.09335
    16.20000    90.00000   225.00000     0.07483    85.78001   225.00000     0.09323
    16.30000    90.00000   225.00000     0.07472    85.77521   225.00000     0.09311
    16.40000    90.00000   225.00000     0.07460    85.77040   225.00000     0.09299
    16.50000    90.00000   225.00000     0.07449    85.76558   225.00000     0.09287
    16.60000    90.00000   225.00000     0.07438    85.76074   225.00000     0.09275
    16.70000    90.00000   225.00000     0.07427    85.75590   225.00000     0.09263
    16.80000    90.00000   225.00000     0.07416    85.75104   225.00000     0.09251
    16.90000    90.00000   225.00000     0.07405    85.74617   225.00000     0.09239
    17.00000    90.00000   225.00000     0.07393    85.74129   225.00000     0.09228
    17.10000    90.00000   225.00000     0.07382    85.73640   225.00000     0.09216
    17.20000    90.00000   225.00000     0.07371    85.73149   225.00000     0.09204
    17.30000    90.00000   225.00000     0.07360    85.72658   225.00000     0.09192
    17.40000    90.00000   225.00000     0.07349    85.72165   225.00000     0.09180
    17.50000    90.00000   225.00000     0.07337    85.71671   225.00000     0.09168
    17.60000    90.00000   225.00000     0.07326    85.71175   225.00000     0.09156
    17.70000    90.00000   225.00000     0.07315    85.70679   225.00000     0.09144
    17.80000    90.00000   225.00000     0.07304    85.70181   225.00000     0.09132
    17.90000    90.00000   225.00000     0.07293    85.69682   225.00000     0.09121
    18.00000    90.00000   225.00000     0.07282    85.69182   225.00000     0.09109
    18.10000    90.00000   225.00000     0.07270    85.68680   225.00000     0.09097
    18.20000    90.00000   225.00000     0.07259    85.68178   225.00000     0.09085
    18.30000    90.00000   225.00000     0.07248    85.67674   225.00000     0.09073
    18.40000    90.00000   225.00000     0.07237    85.67169   225.00000     0.09061
    18.50000    90.00000   225.00000     0.07226    85.66662   225.00000     0.09049
    18.60000    90.00000   225.00000     0.07215    85.66155   225.00000     0.09037
    18.70000    90.00000   225.00000     0.07203    85.65646   225.00000     0.09026
    18.80000    90.00000   225.00000     0.07192    85.65135   225.00000     0.09014
    18.90000    90.00000   225.00000     0.07181    85.64624   225.00000     0.09002
    19.00000    90.00000   225.00000     0.07170    85.64111   225.00000     0.08990
    19.10000    90.00000   225.00000     0.07159    85.63597   225.00000     0.08978
    19.20000    90.00000   225.00000     0.07148    85.63082   225.00000     0.08966
    19.30000    90.00000   225.00000     0.07136    85.62565   225.00000     0.08954
    19.40000    90.00000   225.00000     0.07125    85.62047   225.00000     0.08942
    19.50000    90.00000   225.00000     0.07114    85.61528   225.00000     0.08931
    19.60000    90.00000   225.00000     0.07103    85.61008   225.00000     0.08919
    19.70000    90.00000   225.00000     0.07092    85.60486   225.00000     0.08907
    19.80000    90.00000   225.00000     0.07081    85.59963   225.00000     0.08895
    19.90000    90.00000   225.00000     0.07069    85.59438   225.00000     0.08883
    20.00000    90.00000   225.00000     0.07058    85.58912   225.00000     0.08871
    20.10000    90.00000   225.00000     0.07047    85.58385   225.00000     0.08859
    20.20000    90.00000   225.00000     0.07036    85.57857   225.00000     0.08847
    20.30000    90.00000   225.00000     0.07025    85.57327   225.00000     0.08836
    20.40000    90.00000   225.00000     0.07014    85.56796   225.00000     0.08824
    20.50000    90.00000   225.00000     0.07003    85.56263   225.00000     0.08812
    20.60000    90.00000   225.00000     0.06991    85.55729   225.00000     0.08800
    20.70000    90.00000   225.00000     0.06980    85.55194   225.00000     0.08788
    20.80000    90.00000   225.00000     0.06969    85.54657   225.00000     0.08776
    20.90000    90.00000   225.00000     0.06958    85.54119   225.00000     0.08764
    21.00000    90.00000   225.00000     0.06947    85.53580   225.00000     0.08753
    21.10000    90.00000   225.00000     0.06936    85.53039   225.00000     0.08741
    21.20000    90.00000   225.00000     0.06925    85.52497   225.00000     0.08729
    21.30000    90.00000   225.00000     0.06913    85.51953   225.00000     0.08717
    21.40000    90.00000   225.00000     0.06902    85.51409   225.00000     0.08705
    21.50000    90.00000   225.00000     0.06891    85.50862   225.00000     0.08693
    21.60000    90.00000   225.00000     0.06880    85.50314   225.00000     0.08682
    21.70000    90.00000   225.00000     0.06869    85.49765   225.00000     0.08670
    21.80000    90.00000   225.00000     0.06858    85.49215   225.00000     0.08658
    21.90000    90.00000   225.00000     0.06847    85.48663   225.00000     0.08646
    22.00000    90.00000   225.00000     0.06835    85.48109   225.00000     0.08634
    22.10000    90.00000   225.00000     0.06824    85.47554   225.00000     0.08622
    22.20000    90.00000   225.00000     0.06813    85.46998   225.00000     0.08611
    22.30000    90.00000   225.00000     0.06802    85.46440   225.00000     0.08599
    22.40000    90.00000   225.00000     0.06791    85.45881   225.00000     0.08587
    22.50000    90.00000   225.00000     0.06780    85.45320   225.00000     0.08575
    22.60000    90.00000   225.00000     0.06769    85.44758   225.00000     0.08563
    22.70000    90.00000   225.00000     0.06757    85.44194   225.00000     0.08551
    22.80000    90.00000   225.00000     0.06746    85.43629   225.00000     0.08539
    22.90000    90.00000   225.00000     0.06735    85.43062   225.00000     0.08528
    23.00000    90.00000   225.00000     0.06724    85.42494   225.00000     0.08516
    23.10000    90.00000   225.00000     0.06713    85.41924   225.00000     0.08504
    23.20000    90.00000   225.00000     0.06702    85.41353   225.00000     0.08492
    23.30000    90.00000   225.00000     0.06691    85.40780   225.00000     0.08480
    23.40000    90.00000   225.00000     0.06680    85.40206   225.00000     0.08469
    23.50000    90.00000   225.00000     0.06668    85.39630   225.00000     0.08457
    23.60000    90.00000   225.00000     0.06657    85.39053   225.00000     0.08445
    23.70000    90.00000   225.00000     0.06646    85.38474   225.00000     0.08433
    23.80000    90.00000   225.00000     0.06635    85.37894   225.00000     0.08421
    23.90000    90.00000   225.00000     0.06624    85.37312   225.00000     0.08409
    24.00000    90.00000   225.00000     0.06613    85.36729   225.00000     0.08398
    24.10000    90.00000   225.00000     0.06602    85.36144   225.00000     0.08386
    24.20000    90.00000   225.00000     0.06591    85.35557   225.00000     0.08374
    24.30000    90.00000   225.00000     0.06579    85.34969   225.00000     0.08362
    24.40000    90.00000   225.00000     0.06568    85.34379   225.00000     0.08350
    24.50000    90.00000   225.00000     0.06557    85.33788   225.00000     0.08339
    24.60000    90.00000   225.00000     0.06546    85.33195   225.00000     0.08327
    24.70000    90.00000   225.00000     0.06535    85.32600   225.00000     0.08315
    24.80000    90.00000   225.00000     0.06524    85.32004   225.00000     0.08303
    24.90000    90.00000   225.00000     0.06513    85.31406   225.00000     0.08291
    25.00000    90.00000   225.00000     0.06502    85.30807   225.00000     0.08279
    25.10000    90.00000   225.00000     0.06490    85.30206   225.00000     0.08268
    25.20000    90.00000   225.00000     0.06479    85.29603   225.00000     0.08256
    25.30000    90.00000   225.00000     0.06468    85.28999   225.00000     0.08244
    25.40000    90.00000   225.00000     0.06457    85.28393   225.00000     0.08232
    25.50000    90.00000   225.00000     0.06446    85.27785   225.00000     0.08220
    25.60000    90.00000   225.00000     0.06435    85.27176   225.00000     0.08209
    25.70000    90.00000   225.00000     0.06424    85.26565   225.00000     0.08197
    25.80000    90.00000   225.00000     0.06413    85.25953   225.00000     0.08185
    25.90000    90.00000   225.00000     0.06402    85.25338   225.00000     0.08173
    26.00000    90.00000   225.00000     0.06390    85.24722   225.00000     0.08161
    26.10000    90.00000   225.00000     0.06379    85.24105   225.00000     0.08150
    26.20000    90.00000   225.00000     0.06368    85.23485   225.00000     0.08138
    26.30000    90.00000   225.00000     0.06357    85.22864   225.00000     0.08126
    26.40000    90.00000   225.00000     0.06346    85.22241   225.00000     0.08114
    26.50000    90.00000   225.00000     0.06335    85.21617   225.00000     0.08103
    26.60000    90.00000   225.00000     0.06324    85.20990   225.00000     0.08091
    26.70000    90.00000   225.00000     0.06312    85.20362   225.00000     0.08079
    26.80000    90.00000   225.00000     0.06301    85.19733   225.00000     0.08067
    26.90000    90.00000   225.00000     0.06290    85.19101   225.00000     0.08055
    27.00000    90.00000   225.00000     0.06279    85.18468   225.00000     0.08044
    27.10000    90.00000   225.00000     0.06268    85.17833   225.00000     0.08032
    27.20000    90.00000   225.00000     0.06257    85.17196   225.00000     0.08020
    27.30000    90.00000   225.00000     0.06246    85.16557   225.00000     0.08008
    27.40000    90.00000   225.00000     0.06235    85.15917   225.00000     0.07996
    27.50000    90.00000   225.00000     0.06224    85.15275   225.00000     0.07985
    27.60000    90.00000   225.00000     0.06213    85.14631   225.00000     0.07973
    27.70000    90.00000   225.00000     0.06202    85.13985   225.00000     0.07961
    27.80000    90.00000   225.00000     0.06190    85.13337   225.00000     0.07949
    27.90000    90.00000   225.00000     0.06179    85.12687   225.00000     0.07938
    28.00000    90.00000   225.00000     0.06168    85.12036   225.00000     0.07926
    28.10000    90.00000   225.00000     0.06157    85.11383   225.00000     0.07914
    28.20000    90.00000   225.00000     0.06146    85.10728   225.00000     0.07902
    28.30000    90.00000   225.00000     0.06135    85.10071   225.00000     0.07890
    28.40000    90.00000   225.00000     0.06124    85.09412   225.00000     0.07879
    28.50000    90.00000   225.00000     0.06113    85.08751   225.00000     0.07867
    28.60000    90.00000   225.00000     0.06102    85.08089   225.00000     0.07855
    28.70000    90.00000   225.00000     0.06091    85.07424   225.00000     0.07843
    28.80000    90.00000   225.00000     0.06079    85.06758   225.00000     0.07832
    28.90000    90.00000   225.00000     0.06068    85.06089   225.00000     0.07820
    29.00000    90.00000   225.00000     0.06057    85.05419   225.00000     0.07808
    29.10000    90.00000   225.00000     0.06046    85.04747   225.00000     0.07796
    29.20000    90.00000   225.00000     0.06035    85.04073   225.00000     0.07785
    29.30000    90.00000   225.00000     0.06024    85.03397   225.00000     0.07773
    29.40000    90.00000   225.00000     0.06013    85.02719   225.00000     0.07761
    29.50000    90.00000   225.00000     0.06002    85.02039   225.00000     0.07749
    29.60000    90.00000   225.00000     0.05991    85.01357   225.00000     0.07738
    29.70000    90.00000   225.00000     0.05980    85.00673   225.00000     0.07726
    29.80000    90.00000   225.00000     0.05969    84.99987   225.00000     0.07714
    29.90000    90.00000   225.00000     0.05958    84.99299   225.00000     0.07702
    30.00000    90.00000   225.00000     0.05946    84.98609   225.00000     0.07691
    30.10000    90.00000   225.00000     0.05935    84.97917   225.00000     0.07679
    30.20000    90.00000   225.00000     0.05924    84.97223   225.00000     0.07667
    30.30000    90.00000   225.00000     0.05913    84.96527   225.00000     0.07655
    30.40000    90.00000   225.00000     0.05902    84.95829   225.00000     0.07644
    30.50000    90.00000   225.00000     0.05891    84.95129   225.00000     0.07632
    30.60000    90.00000   225.00000     0.05880    84.94426   225.00000     0.07620
    30.70000    90.00000   225.00000     0.05869    84.93722   225.00000     0.07608
    30.80000    90.00000   225.00000     0.05858    84.93016   225.00000     0.07597
    30.90000    90.00000   225.00000     0.05847    84.92307   225.00000     0.07585
    31.00000    90.00000   225.00000     0.05836    84.91597   225.00000     0.07573
    31.10000    90.00000   225.00000     0.05825    84.90884   225.00000     0.07561
    31.20000    90.00000   225.00000     0.05814    84.90169   225.00000     0.07550
    31.30000    90.00000   225.00000     0.05802    84.89452   225.00000     0.07538
    31.40000    90.00000   225.00000     0.05791    84.88733   225.00000     0.07526
    31.50000    90.00000   225.00000     0.05780    84.88012   225.00000     0.07514
    31.60000    90.00000   225.00000     0.05769    84.87289   225.00000     0.07503
    31.70000    90.00000   225.00000     0.05758    84.86563   225.00000     0.07491
    31.80000    90.00000   225.00000     0.05747    84.85835   225.00000     0.07479
    31.90000    90.00000   225.00000     0.05736    84.85105   225.00000     0.07467
    32.00000    90.00000   225.00000     0.05725    84.84373   225.00000     0.07456
    32.10000    90.00000   225.00000     0.05714    84.83639   225.00000     0.07444
    32.20000    90.00000   225.00000     0.05703    84.82902   225.00000     0.07432
    32.30000    90.00000   225.00000     0.05692    84.82163   225.00000     0.07421
    32.40000    90.00000   225.00000     0.05681    84.81422   225.00000     0.07409
    32.50000    90.00000   225.00000     0.05670    84.80679   225.00000     0.07397
    32.60000    90.00000   225.00000     0.05659    84.79933   225.00000     0.07385
    32.70000    90.00000   225.00000     0.05648    84.79186   225.00000     0.07374
    32.80000    90.00000   225.00000     0.05636    84.78436   225.00000     0.07362
    32.90000    90.00000   225.00000     0.05625    84.77683   225.00000     0.07350
    33.00000    90.00000   225.00000     0.05614    84.76928   225.00000     0.07339
    33.10000    90.00000   225.00000     0.05603    84.76171   225.00000     0.07327
    33.20000    90.00000   225.00000     0.05592    84.75412   225.00000     0.07315
    33.30000    90.00000   225.00000     0.05581    84.74650   225.00000     0.07303
    33.40000    90.00000   225.00000     0.05570    84.73886   225.00000     0.07292
    33.50000    90.00000   225.00000     0.05559    84.73120   225.00000     0.07280
    33.60000    90.00000   225.00000     0.05548    84.72351   225.00000     0.07268
    33.70000    90.00000   225.00000     0.05537    84.71580   225.00000     0.07257
    33.80000    90.00000   225.00000     0.05526    84.70806   225.00000     0.07245
    33.90000    90.00000   225.00000     0.05515    84.70030   225.00000     0.07233
    34.00000    90.00000   225.00000     0.05504    84.69252   225.00000     0.07221
    34.10000    90.00000   225.00000     0.05493    84.68471   225.00000     0.07210
    34.20000    90.00000   225.00000     0.05482    84.67688   225.00000     0.07198
    34.30000    90.00000   225.00000     0.05471    84.66902   225.00000     0.07186
    34.40000    90.00000   225.00000     0.05460    84.66114   225.00000     0.07175
    34.50000    90.00000   225.00000     0.05449    84.65323   225.00000     0.07163
    34.60000    90.00000   225.00000     0.05437    84.64530   225.00000     0.07151
    34.70000    90.00000   225.00000     0.05426    84.63735   225.00000     0.07140
    34.80000    90.00000   225.00000     0.05415    84.62936   225.00000     0.07128
    34.90000    90.00000   225.00000     0.05404    84.62136   225.00000     0.07116
    35.00000    90.00000   225.00000     0.05393    84.61333   225.00000     0.07104
    35.10000    90.00000   225.00000     0.05382    84.60527   225.00000     0.07093
    35.20000    90.00000   225.00000     0.05371    84.59719   225.00000     0.07081
    35.30000    90.00000   225.00000     0.05360    84.58908   225.00000     0.07069
    35.40000    90.00000   225.00000     0.05349    84.58094   225.00000     0.07058
    35.50000    90.00000   225.00000     0.05338    84.57278   225.00000     0.07046
    35.60000    90.00000   225.00000     0.05327    84.56460   225.00000     0.07034
    35.70000    90.00000   225.00000     0.05316    84.55638   225.00000     0.07023
    35.80000    90.00000   225.00000     0.05305    84.54814   225.00000     0.07011
    35.90000    90.00000   225.00000     0.05294    84.53988   225.00000     0.06999
    36.00000    90.00000   225.00000     0.05283    84.53159   225.00000     0.06988
    36.10000    90.00000   225.00000     0.05272    84.52327   225.00000     0.06976
    36.20000    90.00000   225.00000     0.05261    84.51492   225.00000     0.06964
    36.30000    90.00000   225.00000     0.05250    84.50655   225.00000     0.06952
    36.40000    90.00000   225.00000     0.05239    84.49815   225.00000     0.06941
    36.50000    90.00000   225.00000     0.05228    84.48972   225.00000     0.06929
    36.60000    90.00000   225.00000     0.05217    84.48127   225.00000     0.06917
    36.70000    90.00000   225.00000     0.05206    84.47279   225.00000     0.06906
    36.80000    90.00000   225.00000     0.05195    84.46428   225.00000     0.06894
    36.90000    90.00000   225.00000     0.05183    84.45574   225.00000     0.06882
    37.00000    90.00000   225.00000     0.05172    84.44717   225.00000     0.06871
    37.10000    90.00000   225.00000     0.05161    84.43858   225.00000     0.06859
    37.20000    90.00000   225.00000     0.05150    84.42996   225.00000     0.06847
    37.30000    90.00000   225.00000     0.05139    84.42131   225.00000     0.06836
    37.40000    90.00000   225.00000     0.05128    84.41263   225.00000     0.06824
    37.50000    90.00000   225.00000     0.05117    84.40392   225.00000     0.06812
    37.60000    90.00000   225.00000     0.05106    84.39519   225.00000     0.06801
    37.70000    90.00000   225.00000     0.05095    84.38642   225.00000     0.06789
    37.80000    90.00000   225.00000     0.05084    84.37763   225.00000     0.06777
    37.90000    90.00000   225.00000     0.05073    84.36880   225.00000     0.06766
    38.00000    90.00000   225.00000     0.05062    84.35995   225.00000     0.06754
    38.10000    90.00000   225.00000     0.05051    84.35107   225.00000     0.06742
    38.20000    90.00000   225.00000     0.05040    84.34216   225.00000     0.06731
    38.30000    90.00000   225.00000     0.05029    84.33321   225.00000     0.06719
    38.40000    90.00000   225.00000     0.05018    84.32424   225.00000     0.06707
    38.50000    90.00000   225.00000     0.05007    84.31524   225.00000     0.06696
    38.60000    90.00000   225.00000     0.04996    84.30621   225.00000     0.06684
    38.70000    90.00000   225.00000     0.04985    84.29715   225.00000     0.06672
    38.80000    90.00000   225.00000     0.04974    84.28805   225.00000     0.06661
    38.90000    90.00000   225.00000     0.04963    84.27893   225.00000     0.06649
    39.00000    90.00000   225.00000     0.04952    84.26978   225.00000     0.06638
    39.10000    90.00000   225.00000     0.04941    84.26059   225.00000     0.06626
    39.20000    90.00000   225.00000     0.04930    84.25137   225.00000     0.06614
    39.30000    90.00000   225.00000     0.04919    84.24212   225.00000     0.06603
    39.40000    90.00000   225.00000     0.04908    84.23284   225.00000     0.06591
    39.50000    90.00000   225.00000     0.04897    84.22353   225.00000     0.06579
    39.60000    90.00000   225.00000     0.04886    84.21419   225.00000     0.06568
    39.70000    90.00000   225.00000     0.04875    84.20481   225.00000     0.06556
    39.80000    90.00000   225.00000     0.04864    84.19541   225.00000     0.06544
    39.90000    90.00000   225.00000     0.04853    84.18597   225.00000     0.06533
    40.00000    90.00000   225.00000     0.04842    84.17649   225.00000     0.06521
