 # applied field (T), theta (degree), phi (degree), abs for RE 3-4
     0.00000    90.00000   262.26259     0.15231    90.00000   187.73741     0.15231
     0.10000    90.00000   262.28424     0.15221    90.00000   187.71576     0.15221
     0.20000    90.00000   262.30591     0.15211    90.00000   187.69409     0.15211
     0.30000    90.00000   262.32760     0.15201    90.00000   187.67240     0.15201
     0.40000    90.00000   262.34932     0.15191    90.00000   187.65068     0.15191
     0.50000    90.00000   262.37107     0.15181    90.00000   187.62893     0.15181
     0.60000    90.00000   262.39284     0.15171    90.00000   187.60716     0.15171
     0.70000    90.00000   262.41464     0.15161    90.00000   187.58536     0.15161
     0.80000    90.00000   262.43647     0.15151    90.00000   187.56353     0.15151
     0.90000    90.00000   262.45832     0.15141    90.00000   187.54168     0.15141
     1.00000    90.00000   262.48020     0.15131    90.00000   187.51980     0.15131
     1.10000    90.00000   262.50210     0.15121    90.00000   187.49790     0.15121
     1.20000    90.00000   262.52403     0.15111    90.00000   187.47597     0.15111
     1.30000    90.00000   262.54599     0.15101    90.00000   187.45401     0.15101
     1.40000    90.00000   262.56797     0.15091    90.00000   187.43203     0.15091
     1.50000    90.00000   262.58998     0.15081    90.00000   187.41002     0.15081
     1.60000    90.00000   262.61201     0.15071    90.00000   187.38799     0.15071
     1.70000    90.00000   262.63407     0.15061    90.00000   187.36593     0.15061
     1.80000    90.00000   262.65616     0.15051    90.00000   187.34384     0.15051
     1.90000    90.00000   262.67828     0.15041    90.00000   187.32172     0.15041
     2.00000    90.00000   262.70042     0.15031    90.00000   187.29958     0.15031
     2.10000    90.00000   262.72259     0.15021    90.00000   187.27741     0.15021
     2.20000    90.00000   262.74478     0.15011    90.00000   187.25522     0.15011
     2.30000    90.00000   262.76700     0.15001    90.00000   187.23300     0.15001
     2.40000    90.00000   262.78925     0.14991    90.00000   187.21075     0.14991
     2.50000    90.00000   262.81153     0.14981    90.00000   187.18847     0.14981
     2.60000    90.00000   262.83383     0.14971    90.00000   187.16617     0.14971
     2.70000    90.00000   262.85616     0.14961    90.00000   187.14384     0.14961
     2.80000    90.00000   262.87851     0.14951    90.00000   187.12149     0.14951
     2.90000    90.00000   262.90090     0.14941    90.00000   187.09910     0.14941
     3.00000    90.00000   262.92331     0.14931    90.00000   187.07669     0.14931
     3.10000    90.00000   262.94574     0.14921    90.00000   187.05426     0.14921
     3.20000    90.00000   262.96821     0.14911    90.00000   187.03179     0.14911
     3.30000    90.00000   262.99070     0.14901    90.00000   187.00930     0.14901
     3.40000    90.00000   263.01322     0.14891    90.00000   186.98678     0.14891
     3.50000    90.00000   263.03576     0.14881    90.00000   186.96424     0.14881
     3.60000    90.00000   263.05834     0.14872    90.00000   186.94166     0.14872
     3.70000    90.00000   263.08094     0.14862    90.00000   186.91906     0.14862
     3.80000    90.00000   263.10356     0.14852    90.00000   186.89644     0.14852
     3.90000    90.00000   263.12622     0.14842    90.00000   186.87378     0.14842
     4.00000    90.00000   263.14890     0.14832    90.00000   186.85110     0.14832
     4.10000    90.00000   263.17161     0.14822    90.00000   186.82839     0.14822
     4.20000    90.00000   263.19435     0.14812    90.00000   186.80565     0.14812
     4.30000    90.00000   263.21712     0.14802    90.00000   186.78288     0.14802
     4.40000    90.00000   263.23991     0.14792    90.00000   186.76009     0.14792
     4.50000    90.00000   263.26273     0.14782    90.00000   186.73727     0.14782
     4.60000    90.00000   263.28558     0.14772    90.00000   186.71442     0.14772
     4.70000    90.00000   263.30845     0.14762    90.00000   186.69155     0.14762
     4.80000    90.00000   263.33136     0.14752    90.00000   186.66864     0.14752
     4.90000    90.00000   263.35429     0.14743    90.00000   186.64571     0.14743
     5.00000    90.00000   263.37725     0.14733    90.00000   186.62275     0.14733
     5.10000    90.00000   263.40024     0.14723    90.00000   186.59976     0.14723
     5.20000    90.00000   263.42326     0.14713    90.00000   186.57674     0.14713
     5.30000    90.00000   263.44630     0.14703    90.00000   186.55370     0.14703
     5.40000    90.00000   263.46937     0.14693    90.00000   186.53063     0.14693
     5.50000    90.00000   263.49247     0.14683    90.00000   186.50753     0.14683
     5.60000    90.00000   263.51560     0.14673    90.00000   186.48440     0.14673
     5.70000    90.00000   263.53876     0.14663    90.00000   186.46124     0.14663
     5.80000    90.00000   263.56194     0.14654    90.00000   186.43806     0.14654
     5.90000    90.00000   263.58516     0.14644    90.00000   186.41484     0.14644
     6.00000    90.00000   263.60840     0.14634    90.00000   186.39160     0.14634
     6.10000    90.00000   263.63167     0.14624    90.00000   186.36833     0.14624
     6.20000    90.00000   263.65497     0.14614    90.00000   186.34503     0.14614
     6.30000    90.00000   263.67830     0.14604    90.00000   186.32170     0.14604
     6.40000    90.00000   263.70166     0.14594    90.00000   186.29834     0.14594
     6.50000    90.00000   263.72504     0.14584    90.00000   186.27496     0.14584
     6.60000    90.00000   263.74845     0.14575    90.00000   186.25155     0.14575
     6.70000    90.00000   263.77190     0.14565    90.00000   186.22810     0.14565
     6.80000    90.00000   263.79537     0.14555    90.00000   186.20463     0.14555
     6.90000    90.00000   263.81887     0.14545    90.00000   186.18113     0.14545
     7.00000    90.00000   263.84240     0.14535    90.00000   186.15760     0.14535
     7.10000    90.00000   263.86596     0.14525    90.00000   186.13404     0.14525
     7.20000    90.00000   263.88954     0.14516    90.00000   186.11046     0.14516
     7.30000    90.00000   263.91316     0.14506    90.00000   186.08684     0.14506
     7.40000    90.00000   263.93680     0.14496    90.00000   186.06320     0.14496
     7.50000    90.00000   263.96048     0.14486    90.00000   186.03952     0.14486
     7.60000    90.00000   263.98418     0.14476    90.00000   186.01582     0.14476
     7.70000    90.00000   264.00791     0.14467    90.00000   185.99209     0.14467
     7.80000    90.00000   264.03168     0.14457    90.00000   185.96832     0.14457
     7.90000    90.00000   264.05547     0.14447    90.00000   185.94453     0.14447
     8.00000    90.00000   264.07929     0.14437    90.00000   185.92071     0.14437
     8.10000    90.00000   264.10314     0.14427    90.00000   185.89686     0.14427
     8.20000    90.00000   264.12702     0.14417    90.00000   185.87298     0.14417
     8.30000    90.00000   264.15093     0.14408    90.00000   185.84907     0.14408
     8.40000    90.00000   264.17487     0.14398    90.00000   185.82513     0.14398
     8.50000    90.00000   264.19883     0.14388    90.00000   185.80117     0.14388
     8.60000    90.00000   264.22283     0.14378    90.00000   185.77717     0.14378
     8.70000    90.00000   264.24686     0.14369    90.00000   185.75314     0.14369
     8.80000    90.00000   264.27092     0.14359    90.00000   185.72908     0.14359
     8.90000    90.00000   264.29501     0.14349    90.00000   185.70499     0.14349
     9.00000    90.00000   264.31912     0.14339    90.00000   185.68088     0.14339
     9.10000    90.00000   264.34327     0.14329    90.00000   185.65673     0.14329
     9.20000    90.00000   264.36745     0.14320    90.00000   185.63255     0.14320
     9.30000    90.00000   264.39165     0.14310    90.00000   185.60835     0.14310
     9.40000    90.00000   264.41589     0.14300    90.00000   185.58411     0.14300
     9.50000    90.00000   264.44016     0.14290    90.00000   185.55984     0.14290
     9.60000    90.00000   264.46446     0.14281    90.00000   185.53554     0.14281
     9.70000    90.00000   264.48878     0.14271    90.00000   185.51122     0.14271
     9.80000    90.00000   264.51314     0.14261    90.00000   185.48686     0.14261
     9.90000    90.00000   264.53753     0.14251    90.00000   185.46247     0.14251
    10.00000    90.00000   264.56195     0.14242    90.00000   185.43805     0.14242
    10.10000    90.00000   264.58640     0.14232    90.00000   185.41360     0.14232
    10.20000    90.00000   264.61088     0.14222    90.00000   185.38912     0.14222
    10.30000    90.00000   264.63539     0.14212    90.00000   185.36461     0.14212
    10.40000    90.00000   264.65993     0.14203    90.00000   185.34007     0.14203
    10.50000    90.00000   264.68450     0.14193    90.00000   185.31550     0.14193
    10.60000    90.00000   264.70910     0.14183    90.00000   185.29090     0.14183
    10.70000    90.00000   264.73374     0.14174    90.00000   185.26626     0.14174
    10.80000    90.00000   264.75840     0.14164    90.00000   185.24160     0.14164
    10.90000    90.00000   264.78309     0.14154    90.00000   185.21691     0.14154
    11.00000    90.00000   264.80782     0.14144    90.00000   185.19218     0.14144
    11.10000    90.00000   264.83258     0.14135    90.00000   185.16742     0.14135
    11.20000    90.00000   264.85736     0.14125    90.00000   185.14264     0.14125
    11.30000    90.00000   264.88218     0.14115    90.00000   185.11782     0.14115
    11.40000    90.00000   264.90703     0.14106    90.00000   185.09297     0.14106
    11.50000    90.00000   264.93191     0.14096    90.00000   185.06809     0.14096
    11.60000    90.00000   264.95682     0.14086    90.00000   185.04318     0.14086
    11.70000    90.00000   264.98177     0.14077    90.00000   185.01823     0.14077
    11.80000    90.00000   265.00674     0.14067    90.00000   184.99326     0.14067
    11.90000    90.00000   265.03175     0.14057    90.00000   184.96825     0.14057
    12.00000    90.00000   265.05678     0.14048    90.00000   184.94322     0.14048
    12.10000    90.00000   265.08185     0.14038    90.00000   184.91815     0.14038
    12.20000    90.00000   265.10695     0.14028    90.00000   184.89305     0.14028
    12.30000    90.00000   265.13208     0.14019    90.00000   184.86792     0.14019
    12.40000    90.00000   265.15725     0.14009    90.00000   184.84275     0.14009
    12.50000    90.00000   265.18244     0.13999    90.00000   184.81756     0.13999
    12.60000    90.00000   265.20767     0.13990    90.00000   184.79233     0.13990
    12.70000    90.00000   265.23293     0.13980    90.00000   184.76707     0.13980
    12.80000    90.00000   265.25822     0.13970    90.00000   184.74178     0.13970
    12.90000    90.00000   265.28354     0.13961    90.00000   184.71646     0.13961
    13.00000    90.00000   265.30889     0.13951    90.00000   184.69111     0.13951
    13.10000    90.00000   265.33428     0.13941    90.00000   184.66572     0.13941
    13.20000    90.00000   265.35970     0.13932    90.00000   184.64030     0.13932
    13.30000    90.00000   265.38515     0.13922    90.00000   184.61485     0.13922
    13.40000    90.00000   265.41063     0.13913    90.00000   184.58937     0.13913
    13.50000    90.00000   265.43615     0.13903    90.00000   184.56385     0.13903
    13.60000    90.00000   265.46169     0.13893    90.00000   184.53831     0.13893
    13.70000    90.00000   265.48727     0.13884    90.00000   184.51273     0.13884
    13.80000    90.00000   265.51288     0.13874    90.00000   184.48712     0.13874
    13.90000    90.00000   265.53853     0.13865    90.00000   184.46147     0.13865
    14.00000    90.00000   265.56421     0.13855    90.00000   184.43579     0.13855
    14.10000    90.00000   265.58991     0.13845    90.00000   184.41009     0.13845
    14.20000    90.00000   265.61566     0.13836    90.00000   184.38434     0.13836
    14.30000    90.00000   265.64143     0.13826    90.00000   184.35857     0.13826
    14.40000    90.00000   265.66724     0.13817    90.00000   184.33276     0.13817
    14.50000    90.00000   265.69308     0.13807    90.00000   184.30692     0.13807
    14.60000    90.00000   265.71895     0.13797    90.00000   184.28105     0.13797
    14.70000    90.00000   265.74486     0.13788    90.00000   184.25514     0.13788
    14.80000    90.00000   265.77079     0.13778    90.00000   184.22921     0.13778
    14.90000    90.00000   265.79676     0.13769    90.00000   184.20324     0.13769
    15.00000    90.00000   265.82277     0.13759    90.00000   184.17723     0.13759
    15.10000    90.00000   265.84881     0.13750    90.00000   184.15119     0.13750
    15.20000    90.00000   265.87488     0.13740    90.00000   184.12512     0.13740
    15.30000    90.00000   265.90098     0.13730    90.00000   184.09902     0.13730
    15.40000    90.00000   265.92712     0.13721    90.00000   184.07288     0.13721
    15.50000    90.00000   265.95329     0.13711    90.00000   184.04671     0.13711
    15.60000    90.00000   265.97949     0.13702    90.00000   184.02051     0.13702
    15.70000    90.00000   266.00573     0.13692    90.00000   183.99427     0.13692
    15.80000    90.00000   266.03200     0.13683    90.00000   183.96800     0.13683
    15.90000    90.00000   266.05830     0.13673    90.00000   183.94170     0.13673
    16.00000    90.00000   266.08464     0.13664    90.00000   183.91536     0.13664
    16.10000    90.00000   266.11101     0.13654    90.00000   183.88899     0.13654
    16.20000    90.00000   266.13742     0.13645    90.00000   183.86258     0.13645
    16.30000    90.00000   266.16386     0.13635    90.00000   183.83614     0.13635
    16.40000    90.00000   266.19033     0.13626    90.00000   183.80967     0.13626
    16.50000    90.00000   266.21684     0.13616    90.00000   183.78316     0.13616
    16.60000    90.00000   266.24338     0.13607    90.00000   183.75662     0.13607
    16.70000    90.00000   266.26995     0.13597    90.00000   183.73005     0.13597
    16.80000    90.00000   266.29656     0.13588    90.00000   183.70344     0.13588
    16.90000    90.00000   266.32320     0.13578    90.00000   183.67680     0.13578
    17.00000    90.00000   266.34988     0.13569    90.00000   183.65012     0.13569
    17.10000    90.00000   266.37659     0.13559    90.00000   183.62341     0.13559
    17.20000    90.00000   266.40333     0.13550    90.00000   183.59667     0.13550
    17.30000    90.00000   266.43011     0.13540    90.00000   183.56989     0.13540
    17.40000    90.00000   266.45693     0.13531    90.00000   183.54307     0.13531
    17.50000    90.00000   266.48378     0.13521    90.00000   183.51622     0.13521
    17.60000    90.00000   266.51066     0.13512    90.00000   183.48934     0.13512
    17.70000    90.00000   266.53758     0.13502    90.00000   183.46242     0.13502
    17.80000    90.00000   266.56453     0.13493    90.00000   183.43547     0.13493
    17.90000    90.00000   266.59152     0.13483    90.00000   183.40848     0.13483
    18.00000    90.00000   266.61854     0.13474    90.00000   183.38146     0.13474
    18.10000    90.00000   266.64559     0.13464    90.00000   183.35441     0.13464
    18.20000    90.00000   266.67268     0.13455    90.00000   183.32732     0.13455
    18.30000    90.00000   266.69981     0.13445    90.00000   183.30019     0.13445
    18.40000    90.00000   266.72697     0.13436    90.00000   183.27303     0.13436
    18.50000    90.00000   266.75417     0.13427    90.00000   183.24583     0.13427
    18.60000    90.00000   266.78140     0.13417    90.00000   183.21860     0.13417
    18.70000    90.00000   266.80866     0.13408    90.00000   183.19134     0.13408
    18.80000    90.00000   266.83596     0.13398    90.00000   183.16404     0.13398
    18.90000    90.00000   266.86330     0.13389    90.00000   183.13670     0.13389
    19.00000    90.00000   266.89067     0.13379    90.00000   183.10933     0.13379
    19.10000    90.00000   266.91808     0.13370    90.00000   183.08192     0.13370
    19.20000    90.00000   266.94552     0.13361    90.00000   183.05448     0.13361
    19.30000    90.00000   266.97300     0.13351    90.00000   183.02700     0.13351
    19.40000    90.00000   267.00052     0.13342    90.00000   182.99948     0.13342
    19.50000    90.00000   267.02806     0.13332    90.00000   182.97194     0.13332
    19.60000    90.00000   267.05565     0.13323    90.00000   182.94435     0.13323
    19.70000    90.00000   267.08327     0.13314    90.00000   182.91673     0.13314
    19.80000    90.00000   267.11093     0.13304    90.00000   182.88907     0.13304
    19.90000    90.00000   267.13862     0.13295    90.00000   182.86138     0.13295
    20.00000    90.00000   267.16635     0.13285    90.00000   182.83365     0.13285
    20.10000    90.00000   267.19411     0.13276    90.00000   182.80589     0.13276
    20.20000    90.00000   267.22191     0.13267    90.00000   182.77809     0.13267
    20.30000    90.00000   267.24975     0.13257    90.00000   182.75025     0.13257
    20.40000    90.00000   267.27762     0.13248    90.00000   182.72238     0.13248
    20.50000    90.00000   267.30553     0.13239    90.00000   182.69447     0.13239
    20.60000    90.00000   267.33348     0.13229    90.00000   182.66652     0.13229
    20.70000    90.00000   267.36146     0.13220    90.00000   182.63854     0.13220
    20.80000    90.00000   267.38947     0.13210    90.00000   182.61053     0.13210
    20.90000    90.00000   267.41753     0.13201    90.00000   182.58247     0.13201
    21.00000    90.00000   267.44562     0.13192    90.00000   182.55438     0.13192
    21.10000    90.00000   267.47375     0.13182    90.00000   182.52625     0.13182
    21.20000    90.00000   267.50191     0.13173    90.00000   182.49809     0.13173
    21.30000    90.00000   267.53011     0.13164    90.00000   182.46989     0.13164
    21.40000    90.00000   267.55835     0.13154    90.00000   182.44165     0.13154
    21.50000    90.00000   267.58662     0.13145    90.00000   182.41338     0.13145
    21.60000    90.00000   267.61493     0.13136    90.00000   182.38507     0.13136
    21.70000    90.00000   267.64328     0.13126    90.00000   182.35672     0.13126
    21.80000    90.00000   267.67167     0.13117    90.00000   182.32833     0.13117
    21.90000    90.00000   267.70009     0.13108    90.00000   182.29991     0.13108
    22.00000    90.00000   267.72855     0.13099    90.00000   182.27145     0.13099
    22.10000    90.00000   267.75705     0.13089    90.00000   182.24295     0.13089
    22.20000    90.00000   267.78558     0.13080    90.00000   182.21442     0.13080
    22.30000    90.00000   267.81415     0.13071    90.00000   182.18585     0.13071
    22.40000    90.00000   267.84276     0.13061    90.00000   182.15724     0.13061
    22.50000    90.00000   267.87140     0.13052    90.00000   182.12860     0.13052
    22.60000    90.00000   267.90009     0.13043    90.00000   182.09991     0.13043
    22.70000    90.00000   267.92881     0.13034    90.00000   182.07119     0.13034
    22.80000    90.00000   267.95757     0.13024    90.00000   182.04243     0.13024
    22.90000    90.00000   267.98636     0.13015    90.00000   182.01364     0.13015
    23.00000    90.00000   268.01520     0.13006    90.00000   181.98480     0.13006
    23.10000    90.00000   268.04407     0.12996    90.00000   181.95593     0.12996
    23.20000    90.00000   268.07298     0.12987    90.00000   181.92702     0.12987
    23.30000    90.00000   268.10193     0.12978    90.00000   181.89807     0.12978
    23.40000    90.00000   268.13091     0.12969    90.00000   181.86909     0.12969
    23.50000    90.00000   268.15994     0.12959    90.00000   181.84006     0.12959
    23.60000    90.00000   268.18900     0.12950    90.00000   181.81100     0.12950
    23.70000    90.00000   268.21810     0.12941    90.00000   181.78190     0.12941
    23.80000    90.00000   268.24724     0.12932    90.00000   181.75276     0.12932
    23.90000    90.00000   268.27641     0.12923    90.00000   181.72359     0.12923
    24.00000    90.00000   268.30563     0.12913    90.00000   181.69437     0.12913
    24.10000    90.00000   268.33488     0.12904    90.00000   181.66512     0.12904
    24.20000    90.00000   268.36417     0.12895    90.00000   181.63583     0.12895
    24.30000    90.00000   268.39351     0.12886    90.00000   181.60649     0.12886
    24.40000    90.00000   268.42287     0.12876    90.00000   181.57713     0.12876
    24.50000    90.00000   268.45228     0.12867    90.00000   181.54772     0.12867
    24.60000    90.00000   268.48173     0.12858    90.00000   181.51827     0.12858
    24.70000    90.00000   268.51122     0.12849    90.00000   181.48878     0.12849
    24.80000    90.00000   268.54074     0.12840    90.00000   181.45926     0.12840
    24.90000    90.00000   268.57030     0.12830    90.00000   181.42970     0.12830
    25.00000    90.00000   268.59991     0.12821    90.00000   181.40009     0.12821
    25.10000    90.00000   268.62955     0.12812    90.00000   181.37045     0.12812
    25.20000    90.00000   268.65923     0.12803    90.00000   181.34077     0.12803
    25.30000    90.00000   268.68895     0.12794    90.00000   181.31105     0.12794
    25.40000    90.00000   268.71871     0.12785    90.00000   181.28129     0.12785
    25.50000    90.00000   268.74851     0.12775    90.00000   181.25149     0.12775
    25.60000    90.00000   268.77834     0.12766    90.00000   181.22166     0.12766
    25.70000    90.00000   268.80822     0.12757    90.00000   181.19178     0.12757
    25.80000    90.00000   268.83814     0.12748    90.00000   181.16186     0.12748
    25.90000    90.00000   268.86810     0.12739    90.00000   181.13190     0.12739
    26.00000    90.00000   268.89809     0.12730    90.00000   181.10191     0.12730
    26.10000    90.00000   268.92813     0.12720    90.00000   181.07187     0.12720
    26.20000    90.00000   268.95820     0.12711    90.00000   181.04180     0.12711
    26.30000    90.00000   268.98832     0.12702    90.00000   181.01168     0.12702
    26.40000    90.00000   269.01848     0.12693    90.00000   180.98152     0.12693
    26.50000    90.00000   269.04867     0.12684    90.00000   180.95133     0.12684
    26.60000    90.00000   269.07891     0.12675    90.00000   180.92109     0.12675
    26.70000    90.00000   269.10918     0.12666    90.00000   180.89082     0.12666
    26.80000    90.00000   269.13950     0.12657    90.00000   180.86050     0.12657
    26.90000    90.00000   269.16986     0.12648    90.00000   180.83014     0.12648
    27.00000    90.00000   269.20025     0.12638    90.00000   180.79975     0.12638
    27.10000    90.00000   269.23069     0.12629    90.00000   180.76931     0.12629
    27.20000    90.00000   269.26117     0.12620    90.00000   180.73883     0.12620
    27.30000    90.00000   269.29169     0.12611    90.00000   180.70831     0.12611
    27.40000    90.00000   269.32225     0.12602    90.00000   180.67775     0.12602
    27.50000    90.00000   269.35285     0.12593    90.00000   180.64715     0.12593
    27.60000    90.00000   269.38349     0.12584    90.00000   180.61651     0.12584
    27.70000    90.00000   269.41417     0.12575    90.00000   180.58583     0.12575
    27.80000    90.00000   269.44489     0.12566    90.00000   180.55511     0.12566
    27.90000    90.00000   269.47565     0.12557    90.00000   180.52435     0.12557
    28.00000    90.00000   269.50646     0.12548    90.00000   180.49354     0.12548
    28.10000    90.00000   269.53730     0.12539    90.00000   180.46270     0.12539
    28.20000    90.00000   269.56819     0.12529    90.00000   180.43181     0.12529
    28.30000    90.00000   269.59912     0.12520    90.00000   180.40088     0.12520
    28.40000    90.00000   269.63009     0.12511    90.00000   180.36991     0.12511
    28.50000    90.00000   269.66110     0.12502    90.00000   180.33890     0.12502
    28.60000    90.00000   269.69215     0.12493    90.00000   180.30785     0.12493
    28.70000    90.00000   269.72324     0.12484    90.00000   180.27676     0.12484
    28.80000    90.00000   269.75438     0.12475    90.00000   180.24562     0.12475
    28.90000    90.00000   269.78555     0.12466    90.00000   180.21445     0.12466
    29.00000    90.00000   269.81677     0.12457    90.00000   180.18323     0.12457
    29.10000    90.00000   269.84803     0.12448    90.00000   180.15197     0.12448
    29.20000    90.00000   269.87933     0.12439    90.00000   180.12067     0.12439
    29.30000    90.00000   269.91068     0.12430    90.00000   180.08932     0.12430
    29.40000    90.00000   269.94206     0.12421    90.00000   180.05794     0.12421
    29.50000    90.00000   269.97349     0.12412    90.00000   180.02651     0.12412
    29.60000    90.00000   270.00496     0.12403    90.00000   179.99504     0.12403
    29.70000    90.00000   270.03647     0.12394    90.00000   179.96353     0.12394
    29.80000    90.00000   270.06803     0.12385    90.00000   179.93197     0.12385
    29.90000    90.00000   270.09963     0.12376    90.00000   179.90037     0.12376
    30.00000    90.00000   270.13126     0.12367    90.00000   179.86874     0.12367
    30.10000    90.00000   270.16295     0.12358    90.00000   179.83705     0.12358
    30.20000    90.00000   270.19467     0.12349    90.00000   179.80533     0.12349
    30.30000    90.00000   270.22644     0.12340    90.00000   179.77356     0.12340
    30.40000    90.00000   270.25825     0.12331    90.00000   179.74175     0.12331
    30.50000    90.00000   270.29010     0.12322    90.00000   179.70990     0.12322
    30.60000    90.00000   270.32199     0.12314    90.00000   179.67801     0.12314
    30.70000    90.00000   270.35393     0.12305    90.00000   179.64607     0.12305
    30.80000    90.00000   270.38591     0.12296    90.00000   179.61409     0.12296
    30.90000    90.00000   270.41794     0.12287    90.00000   179.58206     0.12287
    31.00000    90.00000   270.45000     0.12278    90.00000   179.55000     0.12278
    31.10000    90.00000   270.48211     0.12269    90.00000   179.51789     0.12269
    31.20000    90.00000   270.51427     0.12260    90.00000   179.48573     0.12260
    31.30000    90.00000   270.54646     0.12251    90.00000   179.45354     0.12251
    31.40000    90.00000   270.57870     0.12242    90.00000   179.42130     0.12242
    31.50000    90.00000   270.61099     0.12233    90.00000   179.38901     0.12233
    31.60000    90.00000   270.64331     0.12224    90.00000   179.35669     0.12224
    31.70000    90.00000   270.67568     0.12215    90.00000   179.32432     0.12215
    31.80000    90.00000   270.70810     0.12207    90.00000   179.29190     0.12207
    31.90000    90.00000   270.74056     0.12198    90.00000   179.25944     0.12198
    32.00000    90.00000   270.77306     0.12189    90.00000   179.22694     0.12189
    32.10000    90.00000   270.80560     0.12180    90.00000   179.19440     0.12180
    32.20000    90.00000   270.83819     0.12171    90.00000   179.16181     0.12171
    32.30000    90.00000   270.87083     0.12162    90.00000   179.12917     0.12162
    32.40000    90.00000   270.90351     0.12153    90.00000   179.09649     0.12153
    32.50000    90.00000   270.93623     0.12144    90.00000   179.06377     0.12144
    32.60000    90.00000   270.96899     0.12136    90.00000   179.03101     0.12136
    32.70000    90.00000   271.00180     0.12127    90.00000   178.99820     0.12127
    32.80000    90.00000   271.03466     0.12118    90.00000   178.96534     0.12118
    32.90000    90.00000   271.06756     0.12109    90.00000   178.93244     0.12109
    33.00000    90.00000   271.10050     0.12100    90.00000   178.89950     0.12100
    33.10000    90.00000   271.13349     0.12091    90.00000   178.86651     0.12091
    33.20000    90.00000   271.16652     0.12082    90.00000   178.83348     0.12082
    33.30000    90.00000   271.19960     0.12074    90.00000   178.80040     0.12074
    33.40000    90.00000   271.23273     0.12065    90.00000   178.76727     0.12065
    33.50000    90.00000   271.26589     0.12056    90.00000   178.73411     0.12056
    33.60000    90.00000   271.29911     0.12047    90.00000   178.70089     0.12047
    33.70000    90.00000   271.33236     0.12038    90.00000   178.66764     0.12038
    33.80000    90.00000   271.36567     0.12030    90.00000   178.63433     0.12030
    33.90000    90.00000   271.39901     0.12021    90.00000   178.60099     0.12021
    34.00000    90.00000   271.43241     0.12012    90.00000   178.56759     0.12012
    34.10000    90.00000   271.46585     0.12003    90.00000   178.53415     0.12003
    34.20000    90.00000   271.49933     0.11994    90.00000   178.50067     0.11994
    34.30000    90.00000   271.53286     0.11986    90.00000   178.46714     0.11986
    34.40000    90.00000   271.56643     0.11977    90.00000   178.43357     0.11977
    34.50000    90.00000   271.60005     0.11968    90.00000   178.39995     0.11968
    34.60000    90.00000   271.63372     0.11959    90.00000   178.36628     0.11959
    34.70000    90.00000   271.66743     0.11951    90.00000   178.33257     0.11951
    34.80000    90.00000   271.70119     0.11942    90.00000   178.29881     0.11942
    34.90000    90.00000   271.73500     0.11933    90.00000   178.26500     0.11933
    35.00000    90.00000   271.76884     0.11924    90.00000   178.23116     0.11924
    35.10000    90.00000   271.80274     0.11916    90.00000   178.19726     0.11916
    35.20000    90.00000   271.83668     0.11907    90.00000   178.16332     0.11907
    35.30000    90.00000   271.87067     0.11898    90.00000   178.12933     0.11898
    35.40000    90.00000   271.90471     0.11889    90.00000   178.09529     0.11889
    35.50000    90.00000   271.93879     0.11881    90.00000   178.06121     0.11881
    35.60000    90.00000   271.97291     0.11872    90.00000   178.02709     0.11872
    35.70000    90.00000   272.00709     0.11863    90.00000   177.99291     0.11863
    35.80000    90.00000   272.04131     0.11855    90.00000   177.95869     0.11855
    35.90000    90.00000   272.07558     0.11846    90.00000   177.92442     0.11846
    36.00000    90.00000   272.10989     0.11837    90.00000   177.89011     0.11837
    36.10000    90.00000   272.14425     0.11828    90.00000   177.85575     0.11828
    36.20000    90.00000   272.17866     0.11820    90.00000   177.82134     0.11820
    36.30000    90.00000   272.21311     0.11811    90.00000   177.78689     0.11811
    36.40000    90.00000   272.24761     0.11802    90.00000   177.75239     0.11802
    36.50000    90.00000   272.28216     0.11794    90.00000   177.71784     0.11794
    36.60000    90.00000   272.31676     0.11785    90.00000   177.68324     0.11785
    36.70000    90.00000   272.35140     0.11776    90.00000   177.64860     0.11776
    36.80000    90.00000   272.38609     0.11768    90.00000   177.61391     0.11768
    36.90000    90.00000   272.42083     0.11759    90.00000   177.57917     0.11759
    37.00000    90.00000   272.45562     0.11750    90.00000   177.54438     0.11750
    37.10000    90.00000   272.49045     0.11742    90.00000   177.50955     0.11742
    37.20000    90.00000   272.52533     0.11733    90.00000   177.47467     0.11733
    37.30000    90.00000   272.56026     0.11725    90.00000   177.43974     0.11725
    37.40000    90.00000   272.59523     0.11716    90.00000   177.40477     0.11716
    37.50000    90.00000   272.63026     0.11707    90.00000   177.36974     0.11707
    37.60000    90.00000   272.66533     0.11699    90.00000   177.33467     0.11699
    37.70000    90.00000   272.70045     0.11690    90.00000   177.29955     0.11690
    37.80000    90.00000   272.73562     0.11681    90.00000   177.26438     0.11681
    37.90000    90.00000   272.77083     0.11673    90.00000   177.22917     0.11673
    38.00000    90.00000   272.80610     0.11664    90.00000   177.19390     0.11664
    38.10000    90.00000   272.84141     0.11656    90.00000   177.15859     0.11656
    38.20000    90.00000   272.87677     0.11647    90.00000   177.12323     0.11647
    38.30000    90.00000   272.91218     0.11638    90.00000   177.08782     0.11638
    38.40000    90.00000   272.94764     0.11630    90.00000   177.05236     0.11630
    38.50000    90.00000   272.98315     0.11621    90.00000   177.01685     0.11621
    38.60000    90.00000   273.01870     0.11613    90.00000   176.98130     0.11613
    38.70000    90.00000   273.05431     0.11604    90.00000   176.94569     0.11604
    38.80000    90.00000   273.08996     0.11596    90.00000   176.91004     0.11596
    38.90000    90.00000   273.12566     0.11587    90.00000   176.87434     0.11587
    39.00000    90.00000   273.16142     0.11579    90.00000   176.83858     0.11579
    39.10000    90.00000   273.19722     0.11570    90.00000   176.80278     0.11570
    39.20000    90.00000   273.23307     0.11561    90.00000   176.76693     0.11561
    39.30000    90.00000   273.26896     0.11553    90.00000   176.73104     0.11553
    39.40000    90.00000   273.30491     0.11544    90.00000   176.69509     0.11544
    39.50000    90.00000   273.34091     0.11536    90.00000   176.65909     0.11536
    39.60000    90.00000   273.37696     0.11527    90.00000   176.62304     0.11527
    39.70000    90.00000   273.41305     0.11519    90.00000   176.58695     0.11519
    39.80000    90.00000   273.44920     0.11510    90.00000   176.55080     0.11510
    39.90000    90.00000   273.48540     0.11502    90.00000   176.51460     0.11502
    40.00000    90.00000   273.52164     0.11493    90.00000   176.47836     0.11493
