 # applied field (T), theta (degree), phi (degree), abs for RE 1-2
     0.00000   180.00000   180.00000     3.83124   180.00000   180.00000     3.83124
     0.10000   179.67556   180.00000     3.83121   179.64835   180.00000     3.83123
     0.20000   179.39759   180.00000     3.83115   179.34703   180.00000     3.83121
     0.30000   179.07312   180.00000     3.83102   178.99536   180.00000     3.83116
     0.40000   178.74863   180.00000     3.83084   178.64366   180.00000     3.83109
     0.50000   178.42409   180.00000     3.83060   178.29194   180.00000     3.83101
     0.60000   178.14601   180.00000     3.83035   177.99052   180.00000     3.83092
     0.70000   177.82138   180.00000     3.83002   177.63872   180.00000     3.83079
     0.80000   177.49668   180.00000     3.82962   177.28686   180.00000     3.83065
     0.90000   177.17190   180.00000     3.82918   176.93495   180.00000     3.83049
     1.00000   176.84703   180.00000     3.82868   176.58296   180.00000     3.83030
     1.10000   176.56864   180.00000     3.82821   176.28129   180.00000     3.83013
     1.20000   176.24358   180.00000     3.82760   175.92915   180.00000     3.82991
     1.30000   175.91841   180.00000     3.82695   175.57692   180.00000     3.82967
     1.40000   175.59312   180.00000     3.82624   175.22458   180.00000     3.82942
     1.50000   175.31432   180.00000     3.82559   174.92259   180.00000     3.82918
     1.60000   174.98876   180.00000     3.82478   174.57005   180.00000     3.82888
     1.70000   174.66305   180.00000     3.82392   174.21739   180.00000     3.82857
     1.80000   174.33718   180.00000     3.82300   173.86460   180.00000     3.82824
     1.90000   174.05785   180.00000     3.82217   173.56219   180.00000     3.82793
     2.00000   173.73164   180.00000     3.82115   173.20913   180.00000     3.82756
     2.10000   173.40524   180.00000     3.82008   172.85592   180.00000     3.82717
     2.20000   173.07864   180.00000     3.81895   172.50254   180.00000     3.82677
     2.30000   172.75182   180.00000     3.81777   172.14900   180.00000     3.82634
     2.40000   172.47165   180.00000     3.81671   171.84592   180.00000     3.82596
     2.50000   172.14441   180.00000     3.81543   171.49204   180.00000     3.82549
     2.60000   171.81693   180.00000     3.81410   171.13797   180.00000     3.82501
     2.70000   171.48920   180.00000     3.81271   170.78370   180.00000     3.82451
     2.80000   171.16121   180.00000     3.81127   170.42922   180.00000     3.82398
     2.90000   170.83294   180.00000     3.80977   170.07453   180.00000     3.82344
     3.00000   170.55148   180.00000     3.80845   169.77042   180.00000     3.82297
     3.10000   170.22268   180.00000     3.80685   169.41531   180.00000     3.82239
     3.20000   169.89358   180.00000     3.80520   169.05996   180.00000     3.82180
     3.30000   169.56417   180.00000     3.80350   168.70436   180.00000     3.82118
     3.40000   169.23444   180.00000     3.80174   168.34852   180.00000     3.82055
     3.50000   168.90438   180.00000     3.79994   167.99241   180.00000     3.81990
     3.60000   168.57398   180.00000     3.79807   167.63603   180.00000     3.81923
     3.70000   168.24323   180.00000     3.79616   167.27938   180.00000     3.81854
     3.80000   167.91211   180.00000     3.79419   166.92244   180.00000     3.81784
     3.90000   167.58063   180.00000     3.79217   166.56522   180.00000     3.81711
     4.00000   167.29632   180.00000     3.79039   166.25887   180.00000     3.81648
     4.10000   166.96412   180.00000     3.78828   165.90109   180.00000     3.81572
     4.20000   166.63152   180.00000     3.78610   165.54299   180.00000     3.81494
     4.30000   166.29851   180.00000     3.78388   165.18457   180.00000     3.81415
     4.40000   165.96507   180.00000     3.78161   164.82582   180.00000     3.81334
     4.50000   165.63121   180.00000     3.77928   164.46674   180.00000     3.81251
     4.60000   165.29690   180.00000     3.77690   164.10732   180.00000     3.81166
     4.70000   164.96214   180.00000     3.77447   163.74754   180.00000     3.81079
     4.80000   164.62692   180.00000     3.77198   163.38741   180.00000     3.80991
     4.90000   164.29123   180.00000     3.76945   163.02692   180.00000     3.80901
     5.00000   163.90686   180.00000     3.76649   162.61438   180.00000     3.80796
     5.10000   163.57012   180.00000     3.76385   162.25308   180.00000     3.80703
     5.20000   163.23288   180.00000     3.76116   161.89140   180.00000     3.80607
     5.30000   162.89512   180.00000     3.75841   161.52932   180.00000     3.80510
     5.40000   162.55683   180.00000     3.75562   161.16683   180.00000     3.80411
     5.50000   162.21801   180.00000     3.75277   160.80394   180.00000     3.80311
     5.60000   161.87864   180.00000     3.74988   160.44064   180.00000     3.80209
     5.70000   161.53871   180.00000     3.74693   160.07691   180.00000     3.80105
     5.80000   161.14940   180.00000     3.74351   159.66061   180.00000     3.79985
     5.90000   160.80824   180.00000     3.74046   159.29595   180.00000     3.79877
     6.00000   160.46649   180.00000     3.73737   158.93085   180.00000     3.79769
     6.10000   160.12414   180.00000     3.73422   158.56530   180.00000     3.79658
     6.20000   159.78118   180.00000     3.73103   158.19929   180.00000     3.79546
     6.30000   159.38833   180.00000     3.72733   157.78034   180.00000     3.79416
     6.40000   159.04402   180.00000     3.72403   157.41332   180.00000     3.79301
     6.50000   158.69906   180.00000     3.72069   157.04583   180.00000     3.79184
     6.60000   158.30389   180.00000     3.71682   156.62516   180.00000     3.79049
     6.70000   157.95751   180.00000     3.71338   156.25662   180.00000     3.78929
     6.80000   157.61044   180.00000     3.70990   155.88757   180.00000     3.78807
     6.90000   157.21283   180.00000     3.70587   155.46511   180.00000     3.78667
     7.00000   156.86426   180.00000     3.70229   155.09497   180.00000     3.78542
     7.10000   156.46491   180.00000     3.69815   154.67124   180.00000     3.78398
     7.20000   156.11480   180.00000     3.69448   154.29998   180.00000     3.78270
     7.30000   155.71365   180.00000     3.69024   153.87496   180.00000     3.78123
     7.40000   155.36193   180.00000     3.68647   153.50255   180.00000     3.77992
     7.50000   154.95892   180.00000     3.68213   153.07619   180.00000     3.77841
     7.60000   154.60555   180.00000     3.67828   152.70260   180.00000     3.77707
     7.70000   154.20063   180.00000     3.67384   152.27488   180.00000     3.77553
     7.80000   153.79465   180.00000     3.66934   151.84642   180.00000     3.77397
     7.90000   153.43864   180.00000     3.66536   151.47097   180.00000     3.77260
     8.00000   153.03066   180.00000     3.66078   151.04110   180.00000     3.77101
     8.10000   152.62157   180.00000     3.65614   150.61046   180.00000     3.76940
     8.20000   152.26280   180.00000     3.65204   150.23309   180.00000     3.76798
     8.30000   151.85161   180.00000     3.64732   149.80099   180.00000     3.76635
     8.40000   151.43928   180.00000     3.64255   149.36811   180.00000     3.76470
     8.50000   151.02578   180.00000     3.63774   148.93444   180.00000     3.76303
     8.60000   150.61110   180.00000     3.63289   148.49995   180.00000     3.76135
     8.70000   150.19521   180.00000     3.62799   148.06466   180.00000     3.75966
     8.80000   149.77811   180.00000     3.62306   147.62855   180.00000     3.75795
     8.90000   149.35978   180.00000     3.61809   147.19160   180.00000     3.75623
     9.00000   148.94019   180.00000     3.61308   146.75382   180.00000     3.75450
     9.10000   148.51934   180.00000     3.60804   146.31520   180.00000     3.75275
     9.20000   148.09719   180.00000     3.60296   145.87573   180.00000     3.75099
     9.30000   147.67374   180.00000     3.59785   145.43540   180.00000     3.74922
     9.40000   147.24897   180.00000     3.59271   144.99421   180.00000     3.74743
     9.50000   146.76942   180.00000     3.58689   144.49676   180.00000     3.74542
     9.60000   146.34179   180.00000     3.58169   144.05371   180.00000     3.74361
     9.70000   145.91277   180.00000     3.57646   143.60977   180.00000     3.74179
     9.80000   145.42839   180.00000     3.57056   143.10922   180.00000     3.73973
     9.90000   144.99639   180.00000     3.56528   142.66338   180.00000     3.73789
    10.00000   144.50862   180.00000     3.55933   142.16068   180.00000     3.73581
    10.10000   144.07356   180.00000     3.55401   141.71291   180.00000     3.73396
    10.20000   143.58231   180.00000     3.54802   141.20802   180.00000     3.73186
    10.30000   143.14412   180.00000     3.54267   140.75830   180.00000     3.72998
    10.40000   142.64931   180.00000     3.53665   140.25120   180.00000     3.72786
    10.50000   142.15257   180.00000     3.53061   139.74292   180.00000     3.72573
    10.60000   141.65390   180.00000     3.52456   139.23346   180.00000     3.72359
    10.70000   141.15326   180.00000     3.51851   138.72280   180.00000     3.72145
    10.80000   140.65064   180.00000     3.51245   138.21093   180.00000     3.71930
    10.90000   140.14602   180.00000     3.50640   137.69787   180.00000     3.71714
    11.00000   139.63937   180.00000     3.50034   137.18359   180.00000     3.71498
    11.10000   139.13068   180.00000     3.49430   136.66809   180.00000     3.71281
    11.20000   138.56300   180.00000     3.48759   136.09385   180.00000     3.71039
    11.30000   138.04993   180.00000     3.48157   135.57577   180.00000     3.70822
    11.40000   137.47735   180.00000     3.47489   134.99864   180.00000     3.70579
    11.50000   136.95983   180.00000     3.46891   134.47795   180.00000     3.70361
    11.60000   136.38226   180.00000     3.46229   133.89792   180.00000     3.70118
    11.70000   135.80204   180.00000     3.45570   133.31636   180.00000     3.69876
    11.80000   135.21915   180.00000     3.44915   132.73326   180.00000     3.69633
    11.90000   134.63356   180.00000     3.44264   132.14863   180.00000     3.69390
    12.00000   134.04528   180.00000     3.43618   131.56245   180.00000     3.69148
    12.10000   133.45427   180.00000     3.42976   130.97473   180.00000     3.68905
    12.20000   132.86053   180.00000     3.42341   130.38546   180.00000     3.68664
    12.30000   132.20423   180.00000     3.41649   129.73546   180.00000     3.68398
    12.40000   131.54460   180.00000     3.40965   129.08359   180.00000     3.68134
    12.50000   130.94207   180.00000     3.40350   128.48938   180.00000     3.67894
    12.60000   130.27607   180.00000     3.39683   127.83395   180.00000     3.67632
    12.70000   129.60672   180.00000     3.39025   127.17666   180.00000     3.67370
    12.80000   128.87270   180.00000     3.38319   126.45748   180.00000     3.67087
    12.90000   128.19638   180.00000     3.37683   125.79632   180.00000     3.66828
    13.00000   127.45476   180.00000     3.37002   125.07292   180.00000     3.66548
    13.10000   126.70919   180.00000     3.36335   124.34735   180.00000     3.66270
    13.20000   125.95968   180.00000     3.35683   123.61961   180.00000     3.65995
    13.30000   125.20628   180.00000     3.35046   122.88971   180.00000     3.65722
    13.40000   124.38569   180.00000     3.34374   122.09656   180.00000     3.65429
    13.50000   123.56060   180.00000     3.33720   121.30091   180.00000     3.65140
    13.60000   122.73103   180.00000     3.33087   120.50281   180.00000     3.64855
    13.70000   121.89704   180.00000     3.32474   119.70226   180.00000     3.64573
    13.80000   120.99402   180.00000     3.31837   118.83742   180.00000     3.64275
    13.90000   120.08602   180.00000     3.31225   117.96983   180.00000     3.63982
    14.00000   119.10772   180.00000     3.30596   117.03724   180.00000     3.63674
    14.10000   118.12389   180.00000     3.29997   116.10160   180.00000     3.63373
    14.20000   117.06852   180.00000     3.29390   115.10027   180.00000     3.63060
    14.30000   116.00715   180.00000     3.28817   114.09560   180.00000     3.62755
    14.40000   114.87302   180.00000     3.28244   113.02459   180.00000     3.62441
    14.50000   113.66518   180.00000     3.27679   111.88669   180.00000     3.62120
    14.60000   112.45036   180.00000     3.27156   110.74494   180.00000     3.61811
    14.70000   111.09266   180.00000     3.26623   109.47198   180.00000     3.61484
    14.80000   109.65848   180.00000     3.26115   108.13068   180.00000     3.61159
    14.90000   108.07808   180.00000     3.25620   106.65642   180.00000     3.60825
    15.00000   106.34942   180.00000     3.25149   105.04821   180.00000     3.60491
    15.10000   104.40084   180.00000     3.24701   103.24048   180.00000     3.60152
    15.20000   102.15912   180.00000     3.24282   101.16696   180.00000     3.59814
    15.30000    99.40833   180.00000     3.23892    98.63062   180.00000     3.59476
    15.40000    95.28752   180.00000     3.23526    94.84440   180.00000     3.59130
    15.50000    90.00000   180.00000     3.23368    90.00000   180.00000     3.58969
    15.60000    90.00000   180.00000     3.23370    90.00000   180.00000     3.58968
    15.70000    90.00000   180.00000     3.23373    90.00000   180.00000     3.58967
    15.80000    90.00000   180.00000     3.23375    90.00000   180.00000     3.58966
    15.90000    90.00000   180.00000     3.23377    90.00000   180.00000     3.58965
    16.00000    90.00000   180.00000     3.23379    90.00000   180.00000     3.58964
    16.10000    90.00000   180.00000     3.23381    90.00000   180.00000     3.58963
    16.20000    90.00000   180.00000     3.23383    90.00000   180.00000     3.58962
    16.30000    90.00000   180.00000     3.23386    90.00000   180.00000     3.58961
    16.40000    90.00000   180.00000     3.23388    90.00000   180.00000     3.58960
    16.50000    90.00000   180.00000     3.23390    90.00000   180.00000     3.58960
    16.60000    90.00000   180.00000     3.23392    90.00000   180.00000     3.58959
    16.70000    90.00000   180.00000     3.23394    90.00000   180.00000     3.58958
    16.80000    90.00000   180.00000     3.23396    90.00000   180.00000     3.58957
    16.90000    90.00000   180.00000     3.23398    90.00000   180.00000     3.58956
    17.00000    90.00000   180.00000     3.23400    90.00000   180.00000     3.58955
    17.10000    90.00000   180.00000     3.23403    90.00000   180.00000     3.58954
    17.20000    90.00000   180.00000     3.23405    90.00000   180.00000     3.58953
    17.30000    90.00000   180.00000     3.23407    90.00000   180.00000     3.58952
    17.40000    90.00000   180.00000     3.23409    90.00000   180.00000     3.58951
    17.50000    90.00000   180.00000     3.23411    90.00000   180.00000     3.58950
    17.60000    90.00000   180.00000     3.23413    90.00000   180.00000     3.58949
    17.70000    90.00000   180.00000     3.23415    90.00000   180.00000     3.58948
    17.80000    90.00000   180.00000     3.23417    90.00000   180.00000     3.58947
    17.90000    90.00000   180.00000     3.23419    90.00000   180.00000     3.58946
    18.00000    90.00000   180.00000     3.23421    90.00000   180.00000     3.58945
    18.10000    90.00000   180.00000     3.23424    90.00000   180.00000     3.58944
    18.20000    90.00000   180.00000     3.23426    90.00000   180.00000     3.58943
    18.30000    90.00000   180.00000     3.23428    90.00000   180.00000     3.58942
    18.40000    90.00000   180.00000     3.23430    90.00000   180.00000     3.58941
    18.50000    90.00000   180.00000     3.23432    90.00000   180.00000     3.58940
    18.60000    90.00000   180.00000     3.23434    90.00000   180.00000     3.58939
    18.70000    90.00000   180.00000     3.23436    90.00000   180.00000     3.58938
    18.80000    90.00000   180.00000     3.23438    90.00000   180.00000     3.58937
    18.90000    90.00000   180.00000     3.23440    90.00000   180.00000     3.58936
    19.00000    90.00000   180.00000     3.23442    90.00000   180.00000     3.58935
    19.10000    90.00000   180.00000     3.23444    90.00000   180.00000     3.58934
    19.20000    90.00000   180.00000     3.23446    90.00000   180.00000     3.58933
    19.30000    90.00000   180.00000     3.23449    90.00000   180.00000     3.58932
    19.40000    90.00000   180.00000     3.23451    90.00000   180.00000     3.58931
    19.50000    90.00000   180.00000     3.23453    90.00000   180.00000     3.58930
    19.60000    90.00000   180.00000     3.23455    90.00000   180.00000     3.58929
    19.70000    90.00000   180.00000     3.23457    90.00000   180.00000     3.58928
    19.80000    90.00000   180.00000     3.23459    90.00000   180.00000     3.58927
    19.90000    90.00000   180.00000     3.23461    90.00000   180.00000     3.58926
    20.00000    90.00000   180.00000     3.23463    90.00000   180.00000     3.58925
    20.10000    90.00000   180.00000     3.23465    90.00000   180.00000     3.58924
    20.20000    90.00000   180.00000     3.23467    90.00000   180.00000     3.58923
    20.30000    90.00000   180.00000     3.23469    90.00000   180.00000     3.58922
    20.40000    90.00000   180.00000     3.23471    90.00000   180.00000     3.58921
    20.50000    90.00000   180.00000     3.23473    90.00000   180.00000     3.58919
    20.60000    90.00000   180.00000     3.23475    90.00000   180.00000     3.58918
    20.70000    90.00000   180.00000     3.23477    90.00000   180.00000     3.58917
    20.80000    90.00000   180.00000     3.23479    90.00000   180.00000     3.58916
    20.90000    90.00000   180.00000     3.23481    90.00000   180.00000     3.58915
    21.00000    90.00000   180.00000     3.23483    90.00000   180.00000     3.58914
    21.10000    90.00000   180.00000     3.23485    90.00000   180.00000     3.58913
    21.20000    90.00000   180.00000     3.23487    90.00000   180.00000     3.58912
    21.30000    90.00000   180.00000     3.23489    90.00000   180.00000     3.58911
    21.40000    90.00000   180.00000     3.23491    90.00000   180.00000     3.58910
    21.50000    90.00000   180.00000     3.23493    90.00000   180.00000     3.58909
    21.60000    90.00000   180.00000     3.23495    90.00000   180.00000     3.58908
    21.70000    90.00000   180.00000     3.23497    90.00000   180.00000     3.58907
    21.80000    90.00000   180.00000     3.23499    90.00000   180.00000     3.58906
    21.90000    90.00000   180.00000     3.23501    90.00000   180.00000     3.58905
    22.00000    90.00000   180.00000     3.23503    90.00000   180.00000     3.58904
    22.10000    90.00000   180.00000     3.23505    90.00000   180.00000     3.58903
    22.20000    90.00000   180.00000     3.23507    90.00000   180.00000     3.58902
    22.30000    90.00000   180.00000     3.23509    90.00000   180.00000     3.58900
    22.40000    90.00000   180.00000     3.23511    90.00000   180.00000     3.58899
    22.50000    90.00000   180.00000     3.23513    90.00000   180.00000     3.58898
    22.60000    90.00000   180.00000     3.23515    90.00000   180.00000     3.58897
    22.70000    90.00000   180.00000     3.23517    90.00000   180.00000     3.58896
    22.80000    90.00000   180.00000     3.23519    90.00000   180.00000     3.58895
    22.90000    90.00000   180.00000     3.23521    90.00000   180.00000     3.58894
    23.00000    90.00000   180.00000     3.23523    90.00000   180.00000     3.58893
    23.10000    90.00000   180.00000     3.23525    90.00000   180.00000     3.58892
    23.20000    90.00000   180.00000     3.23527    90.00000   180.00000     3.58891
    23.30000    90.00000   180.00000     3.23529    90.00000   180.00000     3.58890
    23.40000    90.00000   180.00000     3.23531    90.00000   180.00000     3.58889
    23.50000    90.00000   180.00000     3.23533    90.00000   180.00000     3.58887
    23.60000    90.00000   180.00000     3.23535    90.00000   180.00000     3.58886
    23.70000    90.00000   180.00000     3.23537    90.00000   180.00000     3.58885
    23.80000    90.00000   180.00000     3.23539    90.00000   180.00000     3.58884
    23.90000    90.00000   180.00000     3.23541    90.00000   180.00000     3.58883
    24.00000    90.00000   180.00000     3.23543    90.00000   180.00000     3.58882
    24.10000    90.00000   180.00000     3.23545    90.00000   180.00000     3.58881
    24.20000    90.00000   180.00000     3.23547    90.00000   180.00000     3.58880
    24.30000    90.00000   180.00000     3.23549    90.00000   180.00000     3.58879
    24.40000    90.00000   180.00000     3.23551    90.00000   180.00000     3.58878
    24.50000    90.00000   180.00000     3.23552    90.00000   180.00000     3.58876
    24.60000    90.00000   180.00000     3.23554    90.00000   180.00000     3.58875
    24.70000    90.00000   180.00000     3.23556    90.00000   180.00000     3.58874
    24.80000    90.00000   180.00000     3.23558    90.00000   180.00000     3.58873
    24.90000    90.00000   180.00000     3.23560    90.00000   180.00000     3.58872
    25.00000    90.00000   180.00000     3.23562    90.00000   180.00000     3.58871
    25.10000    90.00000   180.00000     3.23564    90.00000   180.00000     3.58870
    25.20000    90.00000   180.00000     3.23566    90.00000   180.00000     3.58869
    25.30000    90.00000   180.00000     3.23568    90.00000   180.00000     3.58867
    25.40000    90.00000   180.00000     3.23570    90.00000   180.00000     3.58866
    25.50000    90.00000   180.00000     3.23572    90.00000   180.00000     3.58865
    25.60000    90.00000   180.00000     3.23574    90.00000   180.00000     3.58864
    25.70000    90.00000   180.00000     3.23576    90.00000   180.00000     3.58863
    25.80000    90.00000   180.00000     3.23577    90.00000   180.00000     3.58862
    25.90000    90.00000   180.00000     3.23579    90.00000   180.00000     3.58861
    26.00000    90.00000   180.00000     3.23581    90.00000   180.00000     3.58859
    26.10000    90.00000   180.00000     3.23583    90.00000   180.00000     3.58858
    26.20000    90.00000   180.00000     3.23585    90.00000   180.00000     3.58857
    26.30000    90.00000   180.00000     3.23587    90.00000   180.00000     3.58856
    26.40000    90.00000   180.00000     3.23589    90.00000   180.00000     3.58855
    26.50000    90.00000   180.00000     3.23591    90.00000   180.00000     3.58854
    26.60000    90.00000   180.00000     3.23593    90.00000   180.00000     3.58853
    26.70000    90.00000   180.00000     3.23594    90.00000   180.00000     3.58851
    26.80000    90.00000   180.00000     3.23596    90.00000   180.00000     3.58850
    26.90000    90.00000   180.00000     3.23598    90.00000   180.00000     3.58849
    27.00000    90.00000   180.00000     3.23600    90.00000   180.00000     3.58848
    27.10000    90.00000   180.00000     3.23602    90.00000   180.00000     3.58847
    27.20000    90.00000   180.00000     3.23604    90.00000   180.00000     3.58846
    27.30000    90.00000   180.00000     3.23606    90.00000   180.00000     3.58844
    27.40000    90.00000   180.00000     3.23608    90.00000   180.00000     3.58843
    27.50000    90.00000   180.00000     3.23609    90.00000   180.00000     3.58842
    27.60000    90.00000   180.00000     3.23611    90.00000   180.00000     3.58841
    27.70000    90.00000   180.00000     3.23613    90.00000   180.00000     3.58840
    27.80000    90.00000   180.00000     3.23615    90.00000   180.00000     3.58839
    27.90000    90.00000   180.00000     3.23617    90.00000   180.00000     3.58837
    28.00000    90.00000   180.00000     3.23619    90.00000   180.00000     3.58836
    28.10000    90.00000   180.00000     3.23621    90.00000   180.00000     3.58835
    28.20000    90.00000   180.00000     3.23622    90.00000   180.00000     3.58834
    28.30000    90.00000   180.00000     3.23624    90.00000   180.00000     3.58833
    28.40000    90.00000   180.00000     3.23626    90.00000   180.00000     3.58832
    28.50000    90.00000   180.00000     3.23628    90.00000   180.00000     3.58830
    28.60000    90.00000   180.00000     3.23630    90.00000   180.00000     3.58829
    28.70000    90.00000   180.00000     3.23632    90.00000   180.00000     3.58828
    28.80000    90.00000   180.00000     3.23633    90.00000   180.00000     3.58827
    28.90000    90.00000   180.00000     3.23635    90.00000   180.00000     3.58826
    29.00000    90.00000   180.00000     3.23637    90.00000   180.00000     3.58824
    29.10000    90.00000   180.00000     3.23639    90.00000   180.00000     3.58823
    29.20000    90.00000   180.00000     3.23641    90.00000   180.00000     3.58822
    29.30000    90.00000   180.00000     3.23643    90.00000   180.00000     3.58821
    29.40000    90.00000   180.00000     3.23644    90.00000   180.00000     3.58820
    29.50000    90.00000   180.00000     3.23646    90.00000   180.00000     3.58818
    29.60000    90.00000   180.00000     3.23648    90.00000   180.00000     3.58817
    29.70000    90.00000   180.00000     3.23650    90.00000   180.00000     3.58816
    29.80000    90.00000   180.00000     3.23652    90.00000   180.00000     3.58815
    29.90000    90.00000   180.00000     3.23653    90.00000   180.00000     3.58814
    30.00000    90.00000   180.00000     3.23655    90.00000   180.00000     3.58812
    30.10000    90.00000   180.00000     3.23657    90.00000   180.00000     3.58811
    30.20000    90.00000   180.00000     3.23659    90.00000   180.00000     3.58810
    30.30000    90.00000   180.00000     3.23661    90.00000   180.00000     3.58809
    30.40000    90.00000   180.00000     3.23662    90.00000   180.00000     3.58807
    30.50000    90.00000   180.00000     3.23664    90.00000   180.00000     3.58806
    30.60000    90.00000   180.00000     3.23666    90.00000   180.00000     3.58805
    30.70000    90.00000   180.00000     3.23668    90.00000   180.00000     3.58804
    30.80000    90.00000   180.00000     3.23670    90.00000   180.00000     3.58803
    30.90000    90.00000   180.00000     3.23671    90.00000   180.00000     3.58801
    31.00000    90.00000   180.00000     3.23673    90.00000   180.00000     3.58800
    31.10000    90.00000   180.00000     3.23675    90.00000   180.00000     3.58799
    31.20000    90.00000   180.00000     3.23677    90.00000   180.00000     3.58798
    31.30000    90.00000   180.00000     3.23678    90.00000   180.00000     3.58796
    31.40000    90.00000   180.00000     3.23680    90.00000   180.00000     3.58795
    31.50000    90.00000   180.00000     3.23682    90.00000   180.00000     3.58794
    31.60000    90.00000   180.00000     3.23684    90.00000   180.00000     3.58793
    31.70000    90.00000   180.00000     3.23686    90.00000   180.00000     3.58791
    31.80000    90.00000   180.00000     3.23687    90.00000   180.00000     3.58790
    31.90000    90.00000   180.00000     3.23689    90.00000   180.00000     3.58789
    32.00000    90.00000   180.00000     3.23691    90.00000   180.00000     3.58788
    32.10000    90.00000   180.00000     3.23693    90.00000   180.00000     3.58786
    32.20000    90.00000   180.00000     3.23694    90.00000   180.00000     3.58785
    32.30000    90.00000   180.00000     3.23696    90.00000   180.00000     3.58784
    32.40000    90.00000   180.00000     3.23698    90.00000   180.00000     3.58783
    32.50000    90.00000   180.00000     3.23700    90.00000   180.00000     3.58781
    32.60000    90.00000   180.00000     3.23701    90.00000   180.00000     3.58780
    32.70000    90.00000   180.00000     3.23703    90.00000   180.00000     3.58779
    32.80000    90.00000   180.00000     3.23705    90.00000   180.00000     3.58777
    32.90000    90.00000   180.00000     3.23707    90.00000   180.00000     3.58776
    33.00000    90.00000   180.00000     3.23708    90.00000   180.00000     3.58775
    33.10000    90.00000   180.00000     3.23710    90.00000   180.00000     3.58774
    33.20000    90.00000   180.00000     3.23712    90.00000   180.00000     3.58772
    33.30000    90.00000   180.00000     3.23713    90.00000   180.00000     3.58771
    33.40000    90.00000   180.00000     3.23715    90.00000   180.00000     3.58770
    33.50000    90.00000   180.00000     3.23717    90.00000   180.00000     3.58769
    33.60000    90.00000   180.00000     3.23719    90.00000   180.00000     3.58767
    33.70000    90.00000   180.00000     3.23720    90.00000   180.00000     3.58766
    33.80000    90.00000   180.00000     3.23722    90.00000   180.00000     3.58765
    33.90000    90.00000   180.00000     3.23724    90.00000   180.00000     3.58763
    34.00000    90.00000   180.00000     3.23725    90.00000   180.00000     3.58762
    34.10000    90.00000   180.00000     3.23727    90.00000   180.00000     3.58761
    34.20000    90.00000   180.00000     3.23729    90.00000   180.00000     3.58760
    34.30000    90.00000   180.00000     3.23731    90.00000   180.00000     3.58758
    34.40000    90.00000   180.00000     3.23732    90.00000   180.00000     3.58757
    34.50000    90.00000   180.00000     3.23734    90.00000   180.00000     3.58756
    34.60000    90.00000   180.00000     3.23736    90.00000   180.00000     3.58754
    34.70000    90.00000   180.00000     3.23737    90.00000   180.00000     3.58753
    34.80000    90.00000   180.00000     3.23739    90.00000   180.00000     3.58752
    34.90000    90.00000   180.00000     3.23741    90.00000   180.00000     3.58750
    35.00000    90.00000   180.00000     3.23742    90.00000   180.00000     3.58749
    35.10000    90.00000   180.00000     3.23744    90.00000   180.00000     3.58748
    35.20000    90.00000   180.00000     3.23746    90.00000   180.00000     3.58746
    35.30000    90.00000   180.00000     3.23747    90.00000   180.00000     3.58745
    35.40000    90.00000   180.00000     3.23749    90.00000   180.00000     3.58744
    35.50000    90.00000   180.00000     3.23751    90.00000   180.00000     3.58743
    35.60000    90.00000   180.00000     3.23752    90.00000   180.00000     3.58741
    35.70000    90.00000   180.00000     3.23754    90.00000   180.00000     3.58740
    35.80000    90.00000   180.00000     3.23756    90.00000   180.00000     3.58739
    35.90000    90.00000   180.00000     3.23757    90.00000   180.00000     3.58737
    36.00000    90.00000   180.00000     3.23759    90.00000   180.00000     3.58736
    36.10000    90.00000   180.00000     3.23761    90.00000   180.00000     3.58735
    36.20000    90.00000   180.00000     3.23762    90.00000   180.00000     3.58733
    36.30000    90.00000   180.00000     3.23764    90.00000   180.00000     3.58732
    36.40000    90.00000   180.00000     3.23766    90.00000   180.00000     3.58731
    36.50000    90.00000   180.00000     3.23767    90.00000   180.00000     3.58729
    36.60000    90.00000   180.00000     3.23769    90.00000   180.00000     3.58728
    36.70000    90.00000   180.00000     3.23771    90.00000   180.00000     3.58727
    36.80000    90.00000   180.00000     3.23772    90.00000   180.00000     3.58725
    36.90000    90.00000   180.00000     3.23774    90.00000   180.00000     3.58724
    37.00000    90.00000   180.00000     3.23775    90.00000   180.00000     3.58722
    37.10000    90.00000   180.00000     3.23777    90.00000   180.00000     3.58721
    37.20000    90.00000   180.00000     3.23779    90.00000   180.00000     3.58720
    37.30000    90.00000   180.00000     3.23780    90.00000   180.00000     3.58718
    37.40000    90.00000   180.00000     3.23782    90.00000   180.00000     3.58717
    37.50000    90.00000   180.00000     3.23784    90.00000   180.00000     3.58716
    37.60000    90.00000   180.00000     3.23785    90.00000   180.00000     3.58714
    37.70000    90.00000   180.00000     3.23787    90.00000   180.00000     3.58713
    37.80000    90.00000   180.00000     3.23788    90.00000   180.00000     3.58712
    37.90000    90.00000   180.00000     3.23790    90.00000   180.00000     3.58710
    38.00000    90.00000   180.00000     3.23792    90.00000   180.00000     3.58709
    38.10000    90.00000   180.00000     3.23793    90.00000   180.00000     3.58708
    38.20000    90.00000   180.00000     3.23795    90.00000   180.00000     3.58706
    38.30000    90.00000   180.00000     3.23797    90.00000   180.00000     3.58705
    38.40000    90.00000   180.00000     3.23798    90.00000   180.00000     3.58703
    38.50000    90.00000   180.00000     3.23800    90.00000   180.00000     3.58702
    38.60000    90.00000   180.00000     3.23801    90.00000   180.00000     3.58701
    38.70000    90.00000   180.00000     3.23803    90.00000   180.00000     3.58699
    38.80000    90.00000   180.00000     3.23805    90.00000   180.00000     3.58698
    38.90000    90.00000   180.00000     3.23806    90.00000   180.00000     3.58697
    39.00000    90.00000   180.00000     3.23808    90.00000   180.00000     3.58695
    39.10000    90.00000   180.00000     3.23809    90.00000   180.00000     3.58694
    39.20000    90.00000   180.00000     3.23811    90.00000   180.00000     3.58692
    39.30000    90.00000   180.00000     3.23812    90.00000   180.00000     3.58691
    39.40000    90.00000   180.00000     3.23814    90.00000   180.00000     3.58690
    39.50000    90.00000   180.00000     3.23816    90.00000   180.00000     3.58688
    39.60000    90.00000   180.00000     3.23817    90.00000   180.00000     3.58687
    39.70000    90.00000   180.00000     3.23819    90.00000   180.00000     3.58685
    39.80000    90.00000   180.00000     3.23820    90.00000   180.00000     3.58684
    39.90000    90.00000   180.00000     3.23822    90.00000   180.00000     3.58683
    40.00000    90.00000   180.00000     3.23823    90.00000   180.00000     3.58681
