 # applied field (T), theta (degree), phi (degree), abs [muB/unitcell], abs [T]
       0.00000000       0.00000000       0.00000000      45.01447392       1.50482490
       0.10000000       0.22640801      45.00000000      45.01447340       1.50482488
       0.20000000       0.45281617      45.00000000      45.01447186       1.50482483
       0.30000000       0.67922467      45.00000000      45.01446929       1.50482474
       0.40000000       0.90563364      45.00000000      45.01446569       1.50482462
       0.50000000       1.13204326      45.00000000      45.01446107       1.50482447
       0.60000000       1.35845369      45.00000000      45.01445543       1.50482428
       0.70000000       1.58486509      45.00000000      45.01444877       1.50482406
       0.80000000       1.81127762      45.00000000      45.01444110       1.50482380
       0.90000000       2.03769144      45.00000000      45.01443242       1.50482351
       1.00000000       2.26410671      45.00000000      45.01442274       1.50482319
       1.10000000       2.49052360      45.00000000      45.01441206       1.50482283
       1.20000000       2.71694226      45.00000000      45.01440039       1.50482244
       1.30000000       2.94336286      45.00000000      45.01438773       1.50482202
       1.40000000       3.16978555      45.00000000      45.01437410       1.50482156
       1.50000000       3.39621051      45.00000000      45.01435951       1.50482107
       1.60000000       3.62263789      45.00000000      45.01434396       1.50482055
