 # applied field (T), theta (degree), phi (degree), abs for RE 1-2
     0.00000   180.00000   360.00000     4.12146   180.00000   360.00000     4.12146
     0.10000   179.73617   180.00000     4.12144   179.69958   180.00000     4.12146
     0.20000   179.51642   180.00000     4.12137   179.44927   180.00000     4.12145
     0.30000   179.25256   180.00000     4.12125   179.14884   180.00000     4.12142
     0.40000   179.03279   180.00000     4.12110   178.89852   180.00000     4.12140
     0.50000   178.76889   180.00000     4.12088   178.59807   180.00000     4.12136
     0.60000   178.50497   180.00000     4.12060   178.29760   180.00000     4.12131
     0.70000   178.28512   180.00000     4.12032   178.04723   180.00000     4.12126
     0.80000   178.02111   180.00000     4.11995   177.74672   180.00000     4.12119
     0.90000   177.75705   180.00000     4.11951   177.44617   180.00000     4.12111
     1.00000   177.53708   180.00000     4.11911   177.19574   180.00000     4.12104
     1.10000   177.27291   180.00000     4.11858   176.89513   180.00000     4.12094
     1.20000   177.05283   180.00000     4.11810   176.64464   180.00000     4.12085
     1.30000   176.78852   180.00000     4.11747   176.34396   180.00000     4.12074
     1.40000   176.52412   180.00000     4.11679   176.04323   180.00000     4.12062
     1.50000   176.30384   180.00000     4.11617   175.79262   180.00000     4.12050
     1.60000   176.03927   180.00000     4.11539   175.49180   180.00000     4.12036
     1.70000   175.77459   180.00000     4.11456   175.19091   180.00000     4.12021
     1.80000   175.55406   180.00000     4.11382   174.94017   180.00000     4.12008
     1.90000   175.28917   180.00000     4.11288   174.63917   180.00000     4.11991
     2.00000   175.06845   180.00000     4.11206   174.38832   180.00000     4.11976
     2.10000   174.80333   180.00000     4.11103   174.08719   180.00000     4.11957
     2.20000   174.53806   180.00000     4.10994   173.78598   180.00000     4.11938
     2.30000   174.31702   180.00000     4.10899   173.53496   180.00000     4.11920
     2.40000   174.05148   180.00000     4.10781   173.23360   180.00000     4.11899
     2.50000   173.78578   180.00000     4.10657   172.93215   180.00000     4.11876
     2.60000   173.56436   180.00000     4.10549   172.68092   180.00000     4.11857
     2.70000   173.29835   180.00000     4.10416   172.37930   180.00000     4.11833
     2.80000   173.03216   180.00000     4.10277   172.07759   180.00000     4.11807
     2.90000   172.81031   180.00000     4.10156   171.82612   180.00000     4.11786
     3.00000   172.54378   180.00000     4.10007   171.52421   180.00000     4.11759
     3.10000   172.27704   180.00000     4.09853   171.22220   180.00000     4.11731
     3.20000   172.05471   180.00000     4.09720   170.97047   180.00000     4.11706
     3.30000   171.78758   180.00000     4.09556   170.66825   180.00000     4.11677
     3.40000   171.52024   180.00000     4.09387   170.36590   180.00000     4.11646
     3.50000   171.29738   180.00000     4.09241   170.11389   180.00000     4.11619
     3.60000   171.02961   180.00000     4.09062   169.81131   180.00000     4.11587
     3.70000   170.76159   180.00000     4.08878   169.50860   180.00000     4.11553
     3.80000   170.53816   180.00000     4.08720   169.25628   180.00000     4.11525
     3.90000   170.26967   180.00000     4.08526   168.95332   180.00000     4.11489
     4.00000   170.00092   180.00000     4.08326   168.65021   180.00000     4.11453
     4.10000   169.77686   180.00000     4.08156   168.39755   180.00000     4.11422
     4.20000   169.50760   180.00000     4.07947   168.09417   180.00000     4.11384
     4.30000   169.23805   180.00000     4.07733   167.79064   180.00000     4.11345
     4.40000   169.01331   180.00000     4.07550   167.53761   180.00000     4.11312
     4.50000   168.74322   180.00000     4.07326   167.23379   180.00000     4.11271
     4.60000   168.47281   180.00000     4.07097   166.92980   180.00000     4.11229
     4.70000   168.20208   180.00000     4.06862   166.62564   180.00000     4.11186
     4.80000   167.97634   180.00000     4.06663   166.37207   180.00000     4.11150
     4.90000   167.70501   180.00000     4.06419   166.06759   180.00000     4.11105
     5.00000   167.43333   180.00000     4.06170   165.76293   180.00000     4.11060
     5.10000   167.16131   180.00000     4.05916   165.45808   180.00000     4.11014
     5.20000   166.93446   180.00000     4.05699   165.20394   180.00000     4.10974
     5.30000   166.66177   180.00000     4.05436   164.89874   180.00000     4.10926
     5.40000   166.38871   180.00000     4.05167   164.59335   180.00000     4.10877
     5.50000   166.11527   180.00000     4.04893   164.28776   180.00000     4.10826
     5.60000   165.88720   180.00000     4.04661   164.03298   180.00000     4.10784
     5.70000   165.61304   180.00000     4.04378   163.72701   180.00000     4.10732
     5.80000   165.33847   180.00000     4.04090   163.42082   180.00000     4.10679
     5.90000   165.06348   180.00000     4.03797   163.11443   180.00000     4.10625
     6.00000   164.78807   180.00000     4.03499   162.80781   180.00000     4.10570
     6.10000   164.55832   180.00000     4.03246   162.55216   180.00000     4.10524
     6.20000   164.28211   180.00000     4.02939   162.24513   180.00000     4.10467
     6.30000   164.00544   180.00000     4.02627   161.93786   180.00000     4.10410
     6.40000   163.72832   180.00000     4.02311   161.63037   180.00000     4.10351
     6.50000   163.45073   180.00000     4.01989   161.32263   180.00000     4.10291
     6.60000   163.21913   180.00000     4.01717   161.06603   180.00000     4.10241
     6.70000   162.94065   180.00000     4.01386   160.75784   180.00000     4.10180
     6.80000   162.66168   180.00000     4.01051   160.44940   180.00000     4.10118
     6.90000   162.38220   180.00000     4.00712   160.14071   180.00000     4.10054
     7.00000   162.10221   180.00000     4.00367   159.83175   180.00000     4.09990
     7.10000   161.82170   180.00000     4.00018   159.52254   180.00000     4.09925
     7.20000   161.54065   180.00000     3.99664   159.21305   180.00000     4.09859
     7.30000   161.25906   180.00000     3.99306   158.90329   180.00000     4.09792
     7.40000   161.02406   180.00000     3.99004   158.64498   180.00000     4.09735
     7.50000   160.74145   180.00000     3.98637   158.33471   180.00000     4.09667
     7.60000   160.45826   180.00000     3.98267   158.02416   180.00000     4.09597
     7.70000   160.17449   180.00000     3.97892   157.71332   180.00000     4.09526
     7.80000   159.89013   180.00000     3.97512   157.40218   180.00000     4.09454
     7.90000   159.60516   180.00000     3.97128   157.09075   180.00000     4.09382
     8.00000   159.31958   180.00000     3.96741   156.77902   180.00000     4.09308
     8.10000   159.03338   180.00000     3.96349   156.46698   180.00000     4.09234
     8.20000   158.74654   180.00000     3.95952   156.15463   180.00000     4.09158
     8.30000   158.45906   180.00000     3.95552   155.84197   180.00000     4.09082
     8.40000   158.17092   180.00000     3.95148   155.52899   180.00000     4.09005
     8.50000   157.88211   180.00000     3.94740   155.21569   180.00000     4.08926
     8.60000   157.59262   180.00000     3.94329   154.90206   180.00000     4.08847
     8.70000   157.30245   180.00000     3.93913   154.58809   180.00000     4.08767
     8.80000   157.01157   180.00000     3.93494   154.27379   180.00000     4.08686
     8.90000   156.71998   180.00000     3.93071   153.95915   180.00000     4.08603
     9.00000   156.42767   180.00000     3.92644   153.64417   180.00000     4.08520
     9.10000   156.13463   180.00000     3.92215   153.32883   180.00000     4.08436
     9.20000   155.79173   180.00000     3.91709   152.96047   180.00000     4.08337
     9.30000   155.49706   180.00000     3.91272   152.64436   180.00000     4.08251
     9.40000   155.20161   180.00000     3.90832   152.32789   180.00000     4.08164
     9.50000   154.90538   180.00000     3.90388   152.01105   180.00000     4.08077
     9.60000   154.60835   180.00000     3.89942   151.69384   180.00000     4.07988
     9.70000   154.31052   180.00000     3.89492   151.37625   180.00000     4.07898
     9.80000   153.96196   180.00000     3.88965   151.00523   180.00000     4.07792
     9.90000   153.66234   180.00000     3.88510   150.68680   180.00000     4.07700
    10.00000   153.36188   180.00000     3.88051   150.36799   180.00000     4.07608
    10.10000   153.06056   180.00000     3.87591   150.04878   180.00000     4.07514
    10.20000   152.70787   180.00000     3.87051   149.67584   180.00000     4.07404
    10.30000   152.40465   180.00000     3.86585   149.35575   180.00000     4.07308
    10.40000   152.10054   180.00000     3.86117   149.03526   180.00000     4.07212
    10.50000   151.79551   180.00000     3.85647   148.71435   180.00000     4.07115
    10.60000   151.43845   180.00000     3.85096   148.33940   180.00000     4.07000
    10.70000   151.13142   180.00000     3.84622   148.01757   180.00000     4.06901
    10.80000   150.77199   180.00000     3.84067   147.64154   180.00000     4.06784
    10.90000   150.46290   180.00000     3.83589   147.31877   180.00000     4.06682
    11.00000   150.15283   180.00000     3.83110   146.99557   180.00000     4.06580
    11.10000   149.78981   180.00000     3.82549   146.61791   180.00000     4.06460
    11.20000   149.47759   180.00000     3.82067   146.29373   180.00000     4.06356
    11.30000   149.11204   180.00000     3.81504   145.91493   180.00000     4.06233
    11.40000   148.79762   180.00000     3.81019   145.58976   180.00000     4.06127
    11.50000   148.42946   180.00000     3.80454   145.20978   180.00000     4.06003
    11.60000   148.11277   180.00000     3.79968   144.88360   180.00000     4.05895
    11.70000   147.74195   180.00000     3.79401   144.50242   180.00000     4.05768
    11.80000   147.36965   180.00000     3.78834   144.12060   180.00000     4.05640
    11.90000   147.04939   180.00000     3.78347   143.79281   180.00000     4.05530
    12.00000   146.67433   180.00000     3.77779   143.40974   180.00000     4.05399
    12.10000   146.29776   180.00000     3.77212   143.02600   180.00000     4.05268
    12.20000   145.97378   180.00000     3.76726   142.69655   180.00000     4.05155
    12.30000   145.59435   180.00000     3.76160   142.31153   180.00000     4.05022
    12.40000   145.21335   180.00000     3.75594   141.92582   180.00000     4.04887
    12.50000   144.83077   180.00000     3.75030   141.53939   180.00000     4.04752
    12.60000   144.50159   180.00000     3.74548   141.20762   180.00000     4.04635
    12.70000   144.11603   180.00000     3.73986   140.81986   180.00000     4.04497
    12.80000   143.72885   180.00000     3.73427   140.43138   180.00000     4.04359
    12.90000   143.34003   180.00000     3.72870   140.04216   180.00000     4.04219
    13.00000   142.94955   180.00000     3.72315   139.65220   180.00000     4.04079
    13.10000   142.55740   180.00000     3.71763   139.26149   180.00000     4.03937
    13.20000   142.16358   180.00000     3.71214   138.87002   180.00000     4.03795
    13.30000   141.76805   180.00000     3.70668   138.47779   180.00000     4.03652
    13.40000   141.37083   180.00000     3.70126   138.08478   180.00000     4.03507
    13.50000   140.91476   180.00000     3.69512   137.63467   180.00000     4.03341
    13.60000   140.51384   180.00000     3.68978   137.23999   180.00000     4.03195
    13.70000   140.11118   180.00000     3.68448   136.84451   180.00000     4.03047
    13.80000   139.70678   180.00000     3.67924   136.44822   180.00000     4.02899
    13.90000   139.24248   180.00000     3.67330   135.99433   180.00000     4.02729
    14.00000   138.83431   180.00000     3.66817   135.59631   180.00000     4.02579
    14.10000   138.36570   180.00000     3.66237   135.14041   180.00000     4.02407
    14.20000   137.95374   180.00000     3.65735   134.74061   180.00000     4.02255
    14.30000   137.48079   180.00000     3.65170   134.28266   180.00000     4.02081
    14.40000   137.06503   180.00000     3.64682   133.88106   180.00000     4.01928
    14.50000   136.58773   180.00000     3.64132   133.42104   180.00000     4.01752
    14.60000   136.10811   180.00000     3.63592   132.95989   180.00000     4.01575
    14.70000   135.68652   180.00000     3.63127   132.55546   180.00000     4.01420
    14.80000   135.20256   180.00000     3.62605   132.09219   180.00000     4.01241
    14.90000   134.71630   180.00000     3.62093   131.62776   180.00000     4.01062
    15.00000   134.22775   180.00000     3.61592   131.16218   180.00000     4.00882
    15.10000   133.73692   180.00000     3.61102   130.69543   180.00000     4.00702
    15.20000   133.24381   180.00000     3.60623   130.22751   180.00000     4.00521
    15.30000   132.74845   180.00000     3.60156   129.75841   180.00000     4.00339
    15.40000   132.18854   180.00000     3.59645   129.22925   180.00000     4.00134
    15.50000   131.68845   180.00000     3.59204   128.75761   180.00000     3.99952
    15.60000   131.18618   180.00000     3.58776   128.28476   180.00000     3.99768
    15.70000   130.61857   180.00000     3.58309   127.75136   180.00000     3.99562
    15.80000   130.04826   180.00000     3.57860   127.21643   180.00000     3.99355
    15.90000   129.53904   180.00000     3.57475   126.73962   180.00000     3.99171
    16.00000   128.96374   180.00000     3.57058   126.20175   180.00000     3.98964
    16.10000   128.38586   180.00000     3.56659   125.66232   180.00000     3.98757
    16.20000   127.80546   180.00000     3.56278   125.12131   180.00000     3.98550
    16.30000   127.22259   180.00000     3.55916   124.57873   180.00000     3.98343
    16.40000   126.57217   180.00000     3.55535   123.97401   180.00000     3.98113
    16.50000   125.98426   180.00000     3.55212   123.42809   180.00000     3.97906
    16.60000   125.39405   180.00000     3.54908   122.88058   180.00000     3.97700
    16.70000   124.73569   180.00000     3.54592   122.27038   180.00000     3.97471
    16.80000   124.07465   180.00000     3.54300   121.65821   180.00000     3.97243
    16.90000   123.41102   180.00000     3.54032   121.04407   180.00000     3.97017
    17.00000   122.74489   180.00000     3.53787   120.42797   180.00000     3.96791
    17.10000   122.00939   180.00000     3.53544   119.74799   180.00000     3.96544
    17.20000   121.33827   180.00000     3.53349   119.12777   180.00000     3.96320
    17.30000   120.59749   180.00000     3.53159   118.44327   180.00000     3.96077
    17.40000   119.85410   180.00000     3.52998   117.75642   180.00000     3.95835
    17.50000   119.10821   180.00000     3.52864   117.06723   180.00000     3.95596
    17.60000   118.29182   180.00000     3.52747   116.31273   180.00000     3.95338
    17.70000   117.47269   180.00000     3.52660   115.55548   180.00000     3.95083
    17.80000   116.65094   180.00000     3.52603   114.79551   180.00000     3.94832
    17.90000   115.75792   180.00000     3.52573   113.96917   180.00000     3.94564
    18.00000   114.86208   180.00000     3.52575   113.13971   180.00000     3.94301
    18.10000   113.96352   180.00000     3.52607   112.30718   180.00000     3.94044
    18.20000   112.99295   180.00000     3.52672   111.40723   180.00000     3.93773
    18.30000   111.94983   180.00000     3.52774   110.43921   180.00000     3.93491
    18.40000   110.90345   180.00000     3.52907   109.46734   180.00000     3.93217
    18.50000   109.78383   180.00000     3.53079   108.42659   180.00000     3.92936
    18.60000   108.59040   180.00000     3.53291   107.31630   180.00000     3.92650
    18.70000   107.32253   180.00000     3.53541   106.13588   180.00000     3.92361
    18.80000   105.97957   180.00000     3.53826   104.88475   180.00000     3.92075
    18.90000   104.48981   180.00000     3.54158   103.49618   180.00000     3.91780
    19.00000   102.78042   180.00000     3.54544   101.90242   180.00000     3.91474
    19.10000   100.84900   180.00000     3.54968   100.10161   180.00000     3.91171
    19.20000    98.47724   180.00000     3.55441    97.89094   180.00000     3.90863
    19.30000    95.15386   180.00000     3.55957    94.79557   180.00000     3.90556
    19.40000    90.00000   180.00000     3.56284    90.00000   180.00000     3.90374
    19.50000    90.00000   180.00000     3.56288    90.00000   180.00000     3.90374
    19.60000    90.00000   180.00000     3.56292    90.00000   180.00000     3.90374
    19.70000    90.00000   180.00000     3.56296    90.00000   180.00000     3.90373
    19.80000    90.00000   180.00000     3.56301    90.00000   180.00000     3.90373
    19.90000    90.00000   180.00000     3.56305    90.00000   180.00000     3.90373
    20.00000    90.00000   180.00000     3.56309    90.00000   180.00000     3.90372
    20.10000    90.00000   180.00000     3.56313    90.00000   180.00000     3.90372
    20.20000    90.00000   180.00000     3.56318    90.00000   180.00000     3.90372
    20.30000    90.00000   180.00000     3.56322    90.00000   180.00000     3.90371
    20.40000    90.00000   180.00000     3.56326    90.00000   180.00000     3.90371
    20.50000    90.00000   180.00000     3.56330    90.00000   180.00000     3.90371
    20.60000    90.00000   180.00000     3.56335    90.00000   180.00000     3.90370
    20.70000    90.00000   180.00000     3.56339    90.00000   180.00000     3.90370
    20.80000    90.00000   180.00000     3.56343    90.00000   180.00000     3.90370
    20.90000    90.00000   180.00000     3.56347    90.00000   180.00000     3.90369
    21.00000    90.00000   180.00000     3.56352    90.00000   180.00000     3.90369
    21.10000    90.00000   180.00000     3.56356    90.00000   180.00000     3.90368
    21.20000    90.00000   180.00000     3.56360    90.00000   180.00000     3.90368
    21.30000    90.00000   180.00000     3.56364    90.00000   180.00000     3.90368
    21.40000    90.00000   180.00000     3.56368    90.00000   180.00000     3.90367
    21.50000    90.00000   180.00000     3.56373    90.00000   180.00000     3.90367
    21.60000    90.00000   180.00000     3.56377    90.00000   180.00000     3.90367
    21.70000    90.00000   180.00000     3.56381    90.00000   180.00000     3.90366
    21.80000    90.00000   180.00000     3.56385    90.00000   180.00000     3.90366
    21.90000    90.00000   180.00000     3.56390    90.00000   180.00000     3.90365
    22.00000    90.00000   180.00000     3.56394    90.00000   180.00000     3.90365
    22.10000    90.00000   180.00000     3.56398    90.00000   180.00000     3.90365
    22.20000    90.00000   180.00000     3.56402    90.00000   180.00000     3.90364
    22.30000    90.00000   180.00000     3.56406    90.00000   180.00000     3.90364
    22.40000    90.00000   180.00000     3.56411    90.00000   180.00000     3.90364
    22.50000    90.00000   180.00000     3.56415    90.00000   180.00000     3.90363
    22.60000    90.00000   180.00000     3.56419    90.00000   180.00000     3.90363
    22.70000    90.00000   180.00000     3.56423    90.00000   180.00000     3.90362
    22.80000    90.00000   180.00000     3.56427    90.00000   180.00000     3.90362
    22.90000    90.00000   180.00000     3.56431    90.00000   180.00000     3.90362
    23.00000    90.00000   180.00000     3.56436    90.00000   180.00000     3.90361
    23.10000    90.00000   180.00000     3.56440    90.00000   180.00000     3.90361
    23.20000    90.00000   180.00000     3.56444    90.00000   180.00000     3.90360
    23.30000    90.00000   180.00000     3.56448    90.00000   180.00000     3.90360
    23.40000    90.00000   180.00000     3.56452    90.00000   180.00000     3.90360
    23.50000    90.00000   180.00000     3.56456    90.00000   180.00000     3.90359
    23.60000    90.00000   180.00000     3.56461    90.00000   180.00000     3.90359
    23.70000    90.00000   180.00000     3.56465    90.00000   180.00000     3.90358
    23.80000    90.00000   180.00000     3.56469    90.00000   180.00000     3.90358
    23.90000    90.00000   180.00000     3.56473    90.00000   180.00000     3.90358
    24.00000    90.00000   180.00000     3.56477    90.00000   180.00000     3.90357
    24.10000    90.00000   180.00000     3.56481    90.00000   180.00000     3.90357
    24.20000    90.00000   180.00000     3.56486    90.00000   180.00000     3.90356
    24.30000    90.00000   180.00000     3.56490    90.00000   180.00000     3.90356
    24.40000    90.00000   180.00000     3.56494    90.00000   180.00000     3.90355
    24.50000    90.00000   180.00000     3.56498    90.00000   180.00000     3.90355
    24.60000    90.00000   180.00000     3.56502    90.00000   180.00000     3.90355
    24.70000    90.00000   180.00000     3.56506    90.00000   180.00000     3.90354
    24.80000    90.00000   180.00000     3.56510    90.00000   180.00000     3.90354
    24.90000    90.00000   180.00000     3.56514    90.00000   180.00000     3.90353
    25.00000    90.00000   180.00000     3.56519    90.00000   180.00000     3.90353
    25.10000    90.00000   180.00000     3.56523    90.00000   180.00000     3.90352
    25.20000    90.00000   180.00000     3.56527    90.00000   180.00000     3.90352
    25.30000    90.00000   180.00000     3.56531    90.00000   180.00000     3.90352
    25.40000    90.00000   180.00000     3.56535    90.00000   180.00000     3.90351
    25.50000    90.00000   180.00000     3.56539    90.00000   180.00000     3.90351
    25.60000    90.00000   180.00000     3.56543    90.00000   180.00000     3.90350
    25.70000    90.00000   180.00000     3.56547    90.00000   180.00000     3.90350
    25.80000    90.00000   180.00000     3.56551    90.00000   180.00000     3.90349
    25.90000    90.00000   180.00000     3.56555    90.00000   180.00000     3.90349
    26.00000    90.00000   180.00000     3.56560    90.00000   180.00000     3.90348
    26.10000    90.00000   180.00000     3.56564    90.00000   180.00000     3.90348
    26.20000    90.00000   180.00000     3.56568    90.00000   180.00000     3.90348
    26.30000    90.00000   180.00000     3.56572    90.00000   180.00000     3.90347
    26.40000    90.00000   180.00000     3.56576    90.00000   180.00000     3.90347
    26.50000    90.00000   180.00000     3.56580    90.00000   180.00000     3.90346
    26.60000    90.00000   180.00000     3.56584    90.00000   180.00000     3.90346
    26.70000    90.00000   180.00000     3.56588    90.00000   180.00000     3.90345
    26.80000    90.00000   180.00000     3.56592    90.00000   180.00000     3.90345
    26.90000    90.00000   180.00000     3.56596    90.00000   180.00000     3.90344
    27.00000    90.00000   180.00000     3.56600    90.00000   180.00000     3.90344
    27.10000    90.00000   180.00000     3.56604    90.00000   180.00000     3.90343
    27.20000    90.00000   180.00000     3.56608    90.00000   180.00000     3.90343
    27.30000    90.00000   180.00000     3.56612    90.00000   180.00000     3.90342
    27.40000    90.00000   180.00000     3.56616    90.00000   180.00000     3.90342
    27.50000    90.00000   180.00000     3.56621    90.00000   180.00000     3.90342
    27.60000    90.00000   180.00000     3.56625    90.00000   180.00000     3.90341
    27.70000    90.00000   180.00000     3.56629    90.00000   180.00000     3.90341
    27.80000    90.00000   180.00000     3.56633    90.00000   180.00000     3.90340
    27.90000    90.00000   180.00000     3.56637    90.00000   180.00000     3.90340
    28.00000    90.00000   180.00000     3.56641    90.00000   180.00000     3.90339
    28.10000    90.00000   180.00000     3.56645    90.00000   180.00000     3.90339
    28.20000    90.00000   180.00000     3.56649    90.00000   180.00000     3.90338
    28.30000    90.00000   180.00000     3.56653    90.00000   180.00000     3.90338
    28.40000    90.00000   180.00000     3.56657    90.00000   180.00000     3.90337
    28.50000    90.00000   180.00000     3.56661    90.00000   180.00000     3.90337
    28.60000    90.00000   180.00000     3.56665    90.00000   180.00000     3.90336
    28.70000    90.00000   180.00000     3.56669    90.00000   180.00000     3.90336
    28.80000    90.00000   180.00000     3.56673    90.00000   180.00000     3.90335
    28.90000    90.00000   180.00000     3.56677    90.00000   180.00000     3.90335
    29.00000    90.00000   180.00000     3.56681    90.00000   180.00000     3.90334
    29.10000    90.00000   180.00000     3.56685    90.00000   180.00000     3.90334
    29.20000    90.00000   180.00000     3.56689    90.00000   180.00000     3.90333
    29.30000    90.00000   180.00000     3.56693    90.00000   180.00000     3.90333
    29.40000    90.00000   180.00000     3.56697    90.00000   180.00000     3.90332
    29.50000    90.00000   180.00000     3.56701    90.00000   180.00000     3.90332
    29.60000    90.00000   180.00000     3.56705    90.00000   180.00000     3.90331
    29.70000    90.00000   180.00000     3.56709    90.00000   180.00000     3.90331
    29.80000    90.00000   180.00000     3.56713    90.00000   180.00000     3.90330
    29.90000    90.00000   180.00000     3.56717    90.00000   180.00000     3.90330
    30.00000    90.00000   180.00000     3.56721    90.00000   180.00000     3.90329
    30.10000    90.00000   180.00000     3.56725    90.00000   180.00000     3.90329
    30.20000    90.00000   180.00000     3.56729    90.00000   180.00000     3.90328
    30.30000    90.00000   180.00000     3.56733    90.00000   180.00000     3.90327
    30.40000    90.00000   180.00000     3.56737    90.00000   180.00000     3.90327
    30.50000    90.00000   180.00000     3.56741    90.00000   180.00000     3.90326
    30.60000    90.00000   180.00000     3.56744    90.00000   180.00000     3.90326
    30.70000    90.00000   180.00000     3.56748    90.00000   180.00000     3.90325
    30.80000    90.00000   180.00000     3.56752    90.00000   180.00000     3.90325
    30.90000    90.00000   180.00000     3.56756    90.00000   180.00000     3.90324
    31.00000    90.00000   180.00000     3.56760    90.00000   180.00000     3.90324
    31.10000    90.00000   180.00000     3.56764    90.00000   180.00000     3.90323
    31.20000    90.00000   180.00000     3.56768    90.00000   180.00000     3.90323
    31.30000    90.00000   180.00000     3.56772    90.00000   180.00000     3.90322
    31.40000    90.00000   180.00000     3.56776    90.00000   180.00000     3.90322
    31.50000    90.00000   180.00000     3.56780    90.00000   180.00000     3.90321
    31.60000    90.00000   180.00000     3.56784    90.00000   180.00000     3.90321
    31.70000    90.00000   180.00000     3.56788    90.00000   180.00000     3.90320
    31.80000    90.00000   180.00000     3.56792    90.00000   180.00000     3.90319
    31.90000    90.00000   180.00000     3.56796    90.00000   180.00000     3.90319
    32.00000    90.00000   180.00000     3.56800    90.00000   180.00000     3.90318
    32.10000    90.00000   180.00000     3.56803    90.00000   180.00000     3.90318
    32.20000    90.00000   180.00000     3.56807    90.00000   180.00000     3.90317
    32.30000    90.00000   180.00000     3.56811    90.00000   180.00000     3.90317
    32.40000    90.00000   180.00000     3.56815    90.00000   180.00000     3.90316
    32.50000    90.00000   180.00000     3.56819    90.00000   180.00000     3.90316
    32.60000    90.00000   180.00000     3.56823    90.00000   180.00000     3.90315
    32.70000    90.00000   180.00000     3.56827    90.00000   180.00000     3.90314
    32.80000    90.00000   180.00000     3.56831    90.00000   180.00000     3.90314
    32.90000    90.00000   180.00000     3.56835    90.00000   180.00000     3.90313
    33.00000    90.00000   180.00000     3.56839    90.00000   180.00000     3.90313
    33.10000    90.00000   180.00000     3.56842    90.00000   180.00000     3.90312
    33.20000    90.00000   180.00000     3.56846    90.00000   180.00000     3.90312
    33.30000    90.00000   180.00000     3.56850    90.00000   180.00000     3.90311
    33.40000    90.00000   180.00000     3.56854    90.00000   180.00000     3.90310
    33.50000    90.00000   180.00000     3.56858    90.00000   180.00000     3.90310
    33.60000    90.00000   180.00000     3.56862    90.00000   180.00000     3.90309
    33.70000    90.00000   180.00000     3.56866    90.00000   180.00000     3.90309
    33.80000    90.00000   180.00000     3.56869    90.00000   180.00000     3.90308
    33.90000    90.00000   180.00000     3.56873    90.00000   180.00000     3.90307
    34.00000    90.00000   180.00000     3.56877    90.00000   180.00000     3.90307
    34.10000    90.00000   180.00000     3.56881    90.00000   180.00000     3.90306
    34.20000    90.00000   180.00000     3.56885    90.00000   180.00000     3.90306
    34.30000    90.00000   180.00000     3.56889    90.00000   180.00000     3.90305
    34.40000    90.00000   180.00000     3.56893    90.00000   180.00000     3.90305
    34.50000    90.00000   180.00000     3.56896    90.00000   180.00000     3.90304
    34.60000    90.00000   180.00000     3.56900    90.00000   180.00000     3.90303
    34.70000    90.00000   180.00000     3.56904    90.00000   180.00000     3.90303
    34.80000    90.00000   180.00000     3.56908    90.00000   180.00000     3.90302
    34.90000    90.00000   180.00000     3.56912    90.00000   180.00000     3.90302
    35.00000    90.00000   180.00000     3.56916    90.00000   180.00000     3.90301
    35.10000    90.00000   180.00000     3.56919    90.00000   180.00000     3.90300
    35.20000    90.00000   180.00000     3.56923    90.00000   180.00000     3.90300
    35.30000    90.00000   180.00000     3.56927    90.00000   180.00000     3.90299
    35.40000    90.00000   180.00000     3.56931    90.00000   180.00000     3.90298
    35.50000    90.00000   180.00000     3.56935    90.00000   180.00000     3.90298
    35.60000    90.00000   180.00000     3.56938    90.00000   180.00000     3.90297
    35.70000    90.00000   180.00000     3.56942    90.00000   180.00000     3.90297
    35.80000    90.00000   180.00000     3.56946    90.00000   180.00000     3.90296
    35.90000    90.00000   180.00000     3.56950    90.00000   180.00000     3.90295
    36.00000    90.00000   180.00000     3.56954    90.00000   180.00000     3.90295
    36.10000    90.00000   180.00000     3.56957    90.00000   180.00000     3.90294
    36.20000    90.00000   180.00000     3.56961    90.00000   180.00000     3.90293
    36.30000    90.00000   180.00000     3.56965    90.00000   180.00000     3.90293
    36.40000    90.00000   180.00000     3.56969    90.00000   180.00000     3.90292
    36.50000    90.00000   180.00000     3.56973    90.00000   180.00000     3.90292
    36.60000    90.00000   180.00000     3.56976    90.00000   180.00000     3.90291
    36.70000    90.00000   180.00000     3.56980    90.00000   180.00000     3.90290
    36.80000    90.00000   180.00000     3.56984    90.00000   180.00000     3.90290
    36.90000    90.00000   180.00000     3.56988    90.00000   180.00000     3.90289
    37.00000    90.00000   180.00000     3.56992    90.00000   180.00000     3.90288
    37.10000    90.00000   180.00000     3.56995    90.00000   180.00000     3.90288
    37.20000    90.00000   180.00000     3.56999    90.00000   180.00000     3.90287
    37.30000    90.00000   180.00000     3.57003    90.00000   180.00000     3.90286
    37.40000    90.00000   180.00000     3.57007    90.00000   180.00000     3.90286
    37.50000    90.00000   180.00000     3.57010    90.00000   180.00000     3.90285
    37.60000    90.00000   180.00000     3.57014    90.00000   180.00000     3.90285
    37.70000    90.00000   180.00000     3.57018    90.00000   180.00000     3.90284
    37.80000    90.00000   180.00000     3.57022    90.00000   180.00000     3.90283
    37.90000    90.00000   180.00000     3.57025    90.00000   180.00000     3.90283
    38.00000    90.00000   180.00000     3.57029    90.00000   180.00000     3.90282
    38.10000    90.00000   180.00000     3.57033    90.00000   180.00000     3.90281
    38.20000    90.00000   180.00000     3.57037    90.00000   180.00000     3.90281
    38.30000    90.00000   180.00000     3.57040    90.00000   180.00000     3.90280
    38.40000    90.00000   180.00000     3.57044    90.00000   180.00000     3.90279
    38.50000    90.00000   180.00000     3.57048    90.00000   180.00000     3.90279
    38.60000    90.00000   180.00000     3.57051    90.00000   180.00000     3.90278
    38.70000    90.00000   180.00000     3.57055    90.00000   180.00000     3.90277
    38.80000    90.00000   180.00000     3.57059    90.00000   180.00000     3.90277
    38.90000    90.00000   180.00000     3.57063    90.00000   180.00000     3.90276
    39.00000    90.00000   180.00000     3.57066    90.00000   180.00000     3.90275
    39.10000    90.00000   180.00000     3.57070    90.00000   180.00000     3.90275
    39.20000    90.00000   180.00000     3.57074    90.00000   180.00000     3.90274
    39.30000    90.00000   180.00000     3.57077    90.00000   180.00000     3.90273
    39.40000    90.00000   180.00000     3.57081    90.00000   180.00000     3.90273
    39.50000    90.00000   180.00000     3.57085    90.00000   180.00000     3.90272
    39.60000    90.00000   180.00000     3.57089    90.00000   180.00000     3.90271
    39.70000    90.00000   180.00000     3.57092    90.00000   180.00000     3.90270
    39.80000    90.00000   180.00000     3.57096    90.00000   180.00000     3.90270
    39.90000    90.00000   180.00000     3.57100    90.00000   180.00000     3.90269
    40.00000    90.00000   180.00000     3.57103    90.00000   180.00000     3.90268
