 # applied field (T), theta (degree), phi (degree), abs [muB/unitcell], abs [T]
       0.00000000       0.00000000       0.00000000      45.26356754       1.52349631
       0.10000000       0.34143249      45.00000000      45.26356983       1.52349638
       0.20000000       0.68286579      45.00000000      45.26357668       1.52349661
       0.30000000       1.08108821      45.00000000      45.26358997       1.52349706
       0.40000000       1.42252606      45.00000000      45.26360658       1.52349762
       0.50000000       1.76396730      45.00000000      45.26362777       1.52349833
       0.60000000       2.10541275      45.00000000      45.26365355       1.52349920
       0.70000000       2.44686320      45.00000000      45.26368392       1.52350022
       0.80000000       2.84511098      45.00000000      45.26372393       1.52350157
       0.90000000       3.18657508      45.00000000      45.26376416       1.52350292
       1.00000000       3.52804676      45.00000000      45.26380902       1.52350443
       1.10000000       3.86952683      45.00000000      45.26385853       1.52350610
       1.20000000       4.26781349      45.00000000      45.26392032       1.52350818
       1.30000000       4.60931452      45.00000000      45.26397982       1.52351018
       1.40000000       4.95082648      45.00000000      45.26404403       1.52351234
       1.50000000       5.34915365      45.00000000      45.26412258       1.52351499
       1.60000000       5.69069211      45.00000000      45.26419691       1.52351749
       1.70000000       6.03224404      45.00000000      45.26427602       1.52352015
       1.80000000       6.43062113      45.00000000      45.26437159       1.52352337
       1.90000000       6.77220505      45.00000000      45.26446099       1.52352638
       2.00000000       7.11380497      45.00000000      45.26455525       1.52352955
       2.10000000       7.51224133      45.00000000      45.26466814       1.52353335
       2.20000000       7.85387869      45.00000000      45.26477288       1.52353687
       2.30000000       8.25236097      45.00000000      45.26489777       1.52354108
       2.40000000       8.59403946      45.00000000      45.26501311       1.52354496
       2.50000000       8.99257197      45.00000000      45.26515016       1.52354957
       2.60000000       9.33429528      45.00000000      45.26527626       1.52355382
       2.70000000       9.73288229      45.00000000      45.26542564       1.52355885
       2.80000000      10.07465406      45.00000000      45.26556264       1.52356346
       2.90000000      10.47329983      45.00000000      45.26572452       1.52356891
       3.00000000      10.87197900      45.00000000      45.26589313       1.52357458
       3.10000000      11.21383238      45.00000000      45.26604712       1.52357976
       3.20000000      11.61257674      45.00000000      45.26622850       1.52358587
       3.30000000      12.01135795      45.00000000      45.26641676       1.52359221
       3.40000000      12.41017719      45.00000000      45.26661195       1.52359877
       3.50000000      12.80903564      45.00000000      45.26681411       1.52360558
       3.60000000      13.20793448      45.00000000      45.26702329       1.52361262
       3.70000000      13.60687485      45.00000000      45.26723953       1.52361990
       3.80000000      14.00585792      45.00000000      45.26746288       1.52362742
       3.90000000      14.40488481      45.00000000      45.26769338       1.52363517
       4.00000000      14.80395664      45.00000000      45.26793106       1.52364317
       4.10000000      15.20307454      45.00000000      45.26817595       1.52365142
       4.20000000      15.65916697      45.00000000      45.26845925       1.52366095
       4.30000000      16.05838733      45.00000000      45.26871959       1.52366971
       4.40000000      16.45765714      45.00000000      45.26898724       1.52367872
       4.50000000      16.91392757      45.00000000      45.26929626       1.52368912
       4.60000000      17.37026571      45.00000000      45.26961461       1.52369984
       4.70000000      17.76970551      45.00000000      45.26990612       1.52370965
       4.80000000      18.22617460      45.00000000      45.27024211       1.52372096
       4.90000000      18.68271569      45.00000000      45.27058744       1.52373258
       5.00000000      19.13933019      45.00000000      45.27094211       1.52374452
       5.10000000      19.65302424      45.00000000      45.27134654       1.52375813
       5.20000000      20.10979941      45.00000000      45.27172088       1.52377073
       5.30000000      20.56665219      45.00000000      45.27210446       1.52378364
       5.40000000      21.08061954      45.00000000      45.27254094       1.52379834
       5.50000000      21.59468870      45.00000000      45.27298874       1.52381341
       5.60000000      22.10886134      45.00000000      45.27344774       1.52382886
       5.70000000      22.62313902      45.00000000      45.27391779       1.52384468
       5.80000000      23.19460749      45.00000000      45.27444716       1.52386250
       5.90000000      23.70911184      45.00000000      45.27493992       1.52387908
       6.00000000      24.28083584      45.00000000      45.27549386       1.52389773
       6.10000000      24.90982249      45.00000000      45.27611223       1.52391854
       6.20000000      25.48183612      45.00000000      45.27669181       1.52393805
       6.30000000      26.11114515      45.00000000      45.27733732       1.52395977
       6.40000000      26.79779816      45.00000000      45.27805169       1.52398382
       6.50000000      90.00000000      45.00000000      45.29962226       1.52470985
       6.60000000      90.00000000      45.00000000      45.29966829       1.52471140
       6.70000000      90.00000000      45.00000000      45.29971432       1.52471295
       6.80000000      90.00000000      45.00000000      45.29976035       1.52471450
       6.90000000      90.00000000      45.00000000      45.29980639       1.52471604
       7.00000000      90.00000000      45.00000000      45.29985244       1.52471759
       7.10000000      90.00000000      45.00000000      45.29989849       1.52471914
       7.20000000      90.00000000      45.00000000      45.29994455       1.52472069
       7.30000000      90.00000000      45.00000000      45.29999061       1.52472225
       7.40000000      90.00000000      45.00000000      45.30003668       1.52472380
       7.50000000      90.00000000      45.00000000      45.30008276       1.52472535
       7.60000000      90.00000000      45.00000000      45.30012884       1.52472690
       7.70000000      90.00000000      45.00000000      45.30017493       1.52472845
       7.80000000      90.00000000      45.00000000      45.30022102       1.52473000
       7.90000000      90.00000000      45.00000000      45.30026712       1.52473155
       8.00000000      90.00000000      45.00000000      45.30031323       1.52473310
       8.10000000      90.00000000      45.00000000      45.30035934       1.52473466
       8.20000000      90.00000000      45.00000000      45.30040545       1.52473621
       8.30000000      90.00000000      45.00000000      45.30045158       1.52473776
       8.40000000      90.00000000      45.00000000      45.30049771       1.52473931
       8.50000000      90.00000000      45.00000000      45.30054384       1.52474087
       8.60000000      90.00000000      45.00000000      45.30058998       1.52474242
       8.70000000      90.00000000      45.00000000      45.30063613       1.52474397
       8.80000000      90.00000000      45.00000000      45.30068228       1.52474553
       8.90000000      90.00000000      45.00000000      45.30072844       1.52474708
       9.00000000      90.00000000      45.00000000      45.30077460       1.52474863
       9.10000000      90.00000000      45.00000000      45.30082077       1.52475019
       9.20000000      90.00000000      45.00000000      45.30086694       1.52475174
       9.30000000      90.00000000      45.00000000      45.30091312       1.52475330
       9.40000000      90.00000000      45.00000000      45.30095931       1.52475485
       9.50000000      90.00000000      45.00000000      45.30100550       1.52475640
       9.60000000      90.00000000      45.00000000      45.30105170       1.52475796
       9.70000000      90.00000000      45.00000000      45.30109791       1.52475951
       9.80000000      90.00000000      45.00000000      45.30114412       1.52476107
       9.90000000      90.00000000      45.00000000      45.30119033       1.52476263
      10.00000000      90.00000000      45.00000000      45.30123655       1.52476418
      10.10000000      90.00000000      45.00000000      45.30128278       1.52476574
      10.20000000      90.00000000      45.00000000      45.30132902       1.52476729
      10.30000000      90.00000000      45.00000000      45.30137526       1.52476885
      10.40000000      90.00000000      45.00000000      45.30142150       1.52477041
      10.50000000      90.00000000      45.00000000      45.30146775       1.52477196
      10.60000000      90.00000000      45.00000000      45.30151401       1.52477352
      10.70000000      90.00000000      45.00000000      45.30156027       1.52477508
      10.80000000      90.00000000      45.00000000      45.30160654       1.52477663
      10.90000000      90.00000000      45.00000000      45.30165282       1.52477819
      11.00000000      90.00000000      45.00000000      45.30169910       1.52477975
      11.10000000      90.00000000      45.00000000      45.30174538       1.52478131
      11.20000000      90.00000000      45.00000000      45.30179167       1.52478287
      11.30000000      90.00000000      45.00000000      45.30183797       1.52478442
      11.40000000      90.00000000      45.00000000      45.30188428       1.52478598
      11.50000000      90.00000000      45.00000000      45.30193059       1.52478754
      11.60000000      90.00000000      45.00000000      45.30197690       1.52478910
      11.70000000      90.00000000      45.00000000      45.30202322       1.52479066
      11.80000000      90.00000000      45.00000000      45.30206955       1.52479222
      11.90000000      90.00000000      45.00000000      45.30211588       1.52479378
      12.00000000      90.00000000      45.00000000      45.30216222       1.52479534
      12.10000000      90.00000000      45.00000000      45.30220857       1.52479690
      12.20000000      90.00000000      45.00000000      45.30225492       1.52479846
      12.30000000      90.00000000      45.00000000      45.30230128       1.52480002
      12.40000000      90.00000000      45.00000000      45.30234764       1.52480158
      12.50000000      90.00000000      45.00000000      45.30239401       1.52480314
      12.60000000      90.00000000      45.00000000      45.30244038       1.52480470
      12.70000000      90.00000000      45.00000000      45.30248676       1.52480626
      12.80000000      90.00000000      45.00000000      45.30253315       1.52480782
      12.90000000      90.00000000      45.00000000      45.30257954       1.52480938
      13.00000000      90.00000000      45.00000000      45.30262594       1.52481095
      13.10000000      90.00000000      45.00000000      45.30267234       1.52481251
      13.20000000      90.00000000      45.00000000      45.30271875       1.52481407
      13.30000000      90.00000000      45.00000000      45.30276517       1.52481563
      13.40000000      90.00000000      45.00000000      45.30281159       1.52481719
      13.50000000      90.00000000      45.00000000      45.30285802       1.52481876
      13.60000000      90.00000000      45.00000000      45.30290445       1.52482032
      13.70000000      90.00000000      45.00000000      45.30295089       1.52482188
      13.80000000      90.00000000      45.00000000      45.30299733       1.52482345
      13.90000000      90.00000000      45.00000000      45.30304379       1.52482501
      14.00000000      90.00000000      45.00000000      45.30309024       1.52482657
      14.10000000      90.00000000      45.00000000      45.30313671       1.52482814
      14.20000000      90.00000000      45.00000000      45.30318317       1.52482970
      14.30000000      90.00000000      45.00000000      45.30322965       1.52483127
      14.40000000      90.00000000      45.00000000      45.30327613       1.52483283
      14.50000000      90.00000000      45.00000000      45.30332262       1.52483439
      14.60000000      90.00000000      45.00000000      45.30336911       1.52483596
      14.70000000      90.00000000      45.00000000      45.30341561       1.52483752
      14.80000000      90.00000000      45.00000000      45.30346211       1.52483909
      14.90000000      90.00000000      45.00000000      45.30350862       1.52484066
      15.00000000      90.00000000      45.00000000      45.30355514       1.52484222
      15.10000000      90.00000000      45.00000000      45.30360166       1.52484379
      15.20000000      90.00000000      45.00000000      45.30364818       1.52484535
      15.30000000      90.00000000      45.00000000      45.30369472       1.52484692
      15.40000000      90.00000000      45.00000000      45.30374126       1.52484849
      15.50000000      90.00000000      45.00000000      45.30378780       1.52485005
      15.60000000      90.00000000      45.00000000      45.30383435       1.52485162
      15.70000000      90.00000000      45.00000000      45.30388091       1.52485319
      15.80000000      90.00000000      45.00000000      45.30392748       1.52485475
      15.90000000      90.00000000      45.00000000      45.30397404       1.52485632
      16.00000000      90.00000000      45.00000000      45.30402062       1.52485789
      16.10000000      90.00000000      45.00000000      45.30406720       1.52485946
      16.20000000      90.00000000      45.00000000      45.30411379       1.52486102
      16.30000000      90.00000000      45.00000000      45.30416038       1.52486259
      16.40000000      90.00000000      45.00000000      45.30420698       1.52486416
      16.50000000      90.00000000      45.00000000      45.30425358       1.52486573
      16.60000000      90.00000000      45.00000000      45.30430019       1.52486730
      16.70000000      90.00000000      45.00000000      45.30434681       1.52486887
      16.80000000      90.00000000      45.00000000      45.30439343       1.52487044
      16.90000000      90.00000000      45.00000000      45.30444006       1.52487201
      17.00000000      90.00000000      45.00000000      45.30448669       1.52487358
      17.10000000      90.00000000      45.00000000      45.30453333       1.52487515
      17.20000000      90.00000000      45.00000000      45.30457998       1.52487672
      17.30000000      90.00000000      45.00000000      45.30462663       1.52487829
      17.40000000      90.00000000      45.00000000      45.30467329       1.52487986
      17.50000000      90.00000000      45.00000000      45.30471995       1.52488143
      17.60000000      90.00000000      45.00000000      45.30476662       1.52488300
      17.70000000      90.00000000      45.00000000      45.30481330       1.52488457
      17.80000000      90.00000000      45.00000000      45.30485998       1.52488614
      17.90000000      90.00000000      45.00000000      45.30490667       1.52488771
      18.00000000      90.00000000      45.00000000      45.30495336       1.52488928
      18.10000000      90.00000000      45.00000000      45.30500006       1.52489085
      18.20000000      90.00000000      45.00000000      45.30504677       1.52489243
      18.30000000      90.00000000      45.00000000      45.30509348       1.52489400
      18.40000000      90.00000000      45.00000000      45.30514020       1.52489557
      18.50000000      90.00000000      45.00000000      45.30518692       1.52489714
      18.60000000      90.00000000      45.00000000      45.30523365       1.52489872
      18.70000000      90.00000000      45.00000000      45.30528038       1.52490029
      18.80000000      90.00000000      45.00000000      45.30532712       1.52490186
      18.90000000      90.00000000      45.00000000      45.30537387       1.52490344
      19.00000000      90.00000000      45.00000000      45.30542062       1.52490501
      19.10000000      90.00000000      45.00000000      45.30546738       1.52490658
      19.20000000      90.00000000      45.00000000      45.30551415       1.52490816
      19.30000000      90.00000000      45.00000000      45.30556092       1.52490973
      19.40000000      90.00000000      45.00000000      45.30560769       1.52491131
      19.50000000      90.00000000      45.00000000      45.30565448       1.52491288
      19.60000000      90.00000000      45.00000000      45.30570127       1.52491446
      19.70000000      90.00000000      45.00000000      45.30574806       1.52491603
      19.80000000      90.00000000      45.00000000      45.30579486       1.52491761
      19.90000000      90.00000000      45.00000000      45.30584167       1.52491918
      20.00000000      90.00000000      45.00000000      45.30588848       1.52492076
      20.10000000      90.00000000      45.00000000      45.30593530       1.52492233
      20.20000000      90.00000000      45.00000000      45.30598212       1.52492391
      20.30000000      90.00000000      45.00000000      45.30602895       1.52492549
      20.40000000      90.00000000      45.00000000      45.30607579       1.52492706
      20.50000000      90.00000000      45.00000000      45.30612263       1.52492864
      20.60000000      90.00000000      45.00000000      45.30616948       1.52493022
      20.70000000      90.00000000      45.00000000      45.30621633       1.52493179
      20.80000000      90.00000000      45.00000000      45.30626319       1.52493337
      20.90000000      90.00000000      45.00000000      45.30631006       1.52493495
      21.00000000      90.00000000      45.00000000      45.30635693       1.52493652
      21.10000000      90.00000000      45.00000000      45.30640381       1.52493810
      21.20000000      90.00000000      45.00000000      45.30645069       1.52493968
      21.30000000      90.00000000      45.00000000      45.30649758       1.52494126
      21.40000000      90.00000000      45.00000000      45.30654448       1.52494284
      21.50000000      90.00000000      45.00000000      45.30659138       1.52494442
      21.60000000      90.00000000      45.00000000      45.30663829       1.52494599
      21.70000000      90.00000000      45.00000000      45.30668520       1.52494757
      21.80000000      90.00000000      45.00000000      45.30673212       1.52494915
      21.90000000      90.00000000      45.00000000      45.30677905       1.52495073
      22.00000000      90.00000000      45.00000000      45.30682598       1.52495231
      22.10000000      90.00000000      45.00000000      45.30687292       1.52495389
      22.20000000      90.00000000      45.00000000      45.30691986       1.52495547
      22.30000000      90.00000000      45.00000000      45.30696681       1.52495705
      22.40000000      90.00000000      45.00000000      45.30701377       1.52495863
      22.50000000      90.00000000      45.00000000      45.30706073       1.52496021
      22.60000000      90.00000000      45.00000000      45.30710770       1.52496179
      22.70000000      90.00000000      45.00000000      45.30715467       1.52496338
      22.80000000      90.00000000      45.00000000      45.30720165       1.52496496
      22.90000000      90.00000000      45.00000000      45.30724864       1.52496654
      23.00000000      90.00000000      45.00000000      45.30729563       1.52496812
      23.10000000      90.00000000      45.00000000      45.30734263       1.52496970
      23.20000000      90.00000000      45.00000000      45.30738963       1.52497128
      23.30000000      90.00000000      45.00000000      45.30743664       1.52497287
      23.40000000      90.00000000      45.00000000      45.30748365       1.52497445
      23.50000000      90.00000000      45.00000000      45.30753068       1.52497603
      23.60000000      90.00000000      45.00000000      45.30757770       1.52497761
      23.70000000      90.00000000      45.00000000      45.30762474       1.52497920
      23.80000000      90.00000000      45.00000000      45.30767178       1.52498078
      23.90000000      90.00000000      45.00000000      45.30771882       1.52498236
      24.00000000      90.00000000      45.00000000      45.30776587       1.52498395
      24.10000000      90.00000000      45.00000000      45.30781293       1.52498553
      24.20000000      90.00000000      45.00000000      45.30785999       1.52498712
      24.30000000      90.00000000      45.00000000      45.30790706       1.52498870
      24.40000000      90.00000000      45.00000000      45.30795414       1.52499028
      24.50000000      90.00000000      45.00000000      45.30800122       1.52499187
      24.60000000      90.00000000      45.00000000      45.30804831       1.52499345
      24.70000000      90.00000000      45.00000000      45.30809540       1.52499504
      24.80000000      90.00000000      45.00000000      45.30814250       1.52499662
      24.90000000      90.00000000      45.00000000      45.30818961       1.52499821
      25.00000000      90.00000000      45.00000000      45.30823672       1.52499980
      25.10000000      90.00000000      45.00000000      45.30828384       1.52500138
      25.20000000      90.00000000      45.00000000      45.30833096       1.52500297
      25.30000000      90.00000000      45.00000000      45.30837809       1.52500455
      25.40000000      90.00000000      45.00000000      45.30842522       1.52500614
      25.50000000      90.00000000      45.00000000      45.30847237       1.52500773
      25.60000000      90.00000000      45.00000000      45.30851951       1.52500931
      25.70000000      90.00000000      45.00000000      45.30856667       1.52501090
      25.80000000      90.00000000      45.00000000      45.30861383       1.52501249
      25.90000000      90.00000000      45.00000000      45.30866099       1.52501408
      26.00000000      90.00000000      45.00000000      45.30870816       1.52501566
      26.10000000      90.00000000      45.00000000      45.30875534       1.52501725
      26.20000000      90.00000000      45.00000000      45.30880253       1.52501884
      26.30000000      90.00000000      45.00000000      45.30884972       1.52502043
      26.40000000      90.00000000      45.00000000      45.30889691       1.52502202
      26.50000000      90.00000000      45.00000000      45.30894411       1.52502361
      26.60000000      90.00000000      45.00000000      45.30899132       1.52502519
      26.70000000      90.00000000      45.00000000      45.30903854       1.52502678
      26.80000000      90.00000000      45.00000000      45.30908576       1.52502837
      26.90000000      90.00000000      45.00000000      45.30913298       1.52502996
      27.00000000      90.00000000      45.00000000      45.30918021       1.52503155
      27.10000000      90.00000000      45.00000000      45.30922745       1.52503314
      27.20000000      90.00000000      45.00000000      45.30927470       1.52503473
      27.30000000      90.00000000      45.00000000      45.30932195       1.52503632
      27.40000000      90.00000000      45.00000000      45.30936920       1.52503791
      27.50000000      90.00000000      45.00000000      45.30941646       1.52503950
      27.60000000      90.00000000      45.00000000      45.30946373       1.52504109
      27.70000000      90.00000000      45.00000000      45.30951101       1.52504269
      27.80000000      90.00000000      45.00000000      45.30955829       1.52504428
      27.90000000      90.00000000      45.00000000      45.30960557       1.52504587
      28.00000000      90.00000000      45.00000000      45.30965287       1.52504746
      28.10000000      90.00000000      45.00000000      45.30970016       1.52504905
      28.20000000      90.00000000      45.00000000      45.30974747       1.52505064
      28.30000000      90.00000000      45.00000000      45.30979478       1.52505224
      28.40000000      90.00000000      45.00000000      45.30984210       1.52505383
      28.50000000      90.00000000      45.00000000      45.30988942       1.52505542
      28.60000000      90.00000000      45.00000000      45.30993675       1.52505702
      28.70000000      90.00000000      45.00000000      45.30998408       1.52505861
      28.80000000      90.00000000      45.00000000      45.31003142       1.52506020
      28.90000000      90.00000000      45.00000000      45.31007877       1.52506180
      29.00000000      90.00000000      45.00000000      45.31012612       1.52506339
      29.10000000      90.00000000      45.00000000      45.31017348       1.52506498
      29.20000000      90.00000000      45.00000000      45.31022084       1.52506658
      29.30000000      90.00000000      45.00000000      45.31026822       1.52506817
      29.40000000      90.00000000      45.00000000      45.31031559       1.52506977
      29.50000000      90.00000000      45.00000000      45.31036298       1.52507136
      29.60000000      90.00000000      45.00000000      45.31041037       1.52507296
      29.70000000      90.00000000      45.00000000      45.31045776       1.52507455
      29.80000000      90.00000000      45.00000000      45.31050516       1.52507615
      29.90000000      90.00000000      45.00000000      45.31055257       1.52507774
      30.00000000      90.00000000      45.00000000      45.31059998       1.52507934
      30.10000000      90.00000000      45.00000000      45.31064740       1.52508094
      30.20000000      90.00000000      45.00000000      45.31069483       1.52508253
      30.30000000      90.00000000      45.00000000      45.31074226       1.52508413
      30.40000000      90.00000000      45.00000000      45.31078970       1.52508572
      30.50000000      90.00000000      45.00000000      45.31083714       1.52508732
      30.60000000      90.00000000      45.00000000      45.31088459       1.52508892
      30.70000000      90.00000000      45.00000000      45.31093205       1.52509052
      30.80000000      90.00000000      45.00000000      45.31097951       1.52509211
      30.90000000      90.00000000      45.00000000      45.31102698       1.52509371
      31.00000000      90.00000000      45.00000000      45.31107445       1.52509531
      31.10000000      90.00000000      45.00000000      45.31112193       1.52509691
      31.20000000      90.00000000      45.00000000      45.31116942       1.52509851
      31.30000000      90.00000000      45.00000000      45.31121691       1.52510010
      31.40000000      90.00000000      45.00000000      45.31126441       1.52510170
      31.50000000      90.00000000      45.00000000      45.31131191       1.52510330
      31.60000000      90.00000000      45.00000000      45.31135942       1.52510490
      31.70000000      90.00000000      45.00000000      45.31140694       1.52510650
      31.80000000      90.00000000      45.00000000      45.31145446       1.52510810
      31.90000000      90.00000000      45.00000000      45.31150199       1.52510970
      32.00000000      90.00000000      45.00000000      45.31154952       1.52511130
      32.10000000      90.00000000      45.00000000      45.31159707       1.52511290
      32.20000000      90.00000000      45.00000000      45.31164461       1.52511450
      32.30000000      90.00000000      45.00000000      45.31169217       1.52511610
      32.40000000      90.00000000      45.00000000      45.31173973       1.52511770
      32.50000000      90.00000000      45.00000000      45.31178729       1.52511930
      32.60000000      90.00000000      45.00000000      45.31183486       1.52512090
      32.70000000      90.00000000      45.00000000      45.31188244       1.52512250
      32.80000000      90.00000000      45.00000000      45.31193002       1.52512411
      32.90000000      90.00000000      45.00000000      45.31197761       1.52512571
      33.00000000      90.00000000      45.00000000      45.31202521       1.52512731
      33.10000000      90.00000000      45.00000000      45.31207281       1.52512891
      33.20000000      90.00000000      45.00000000      45.31212042       1.52513051
      33.30000000      90.00000000      45.00000000      45.31216803       1.52513212
      33.40000000      90.00000000      45.00000000      45.31221565       1.52513372
      33.50000000      90.00000000      45.00000000      45.31226328       1.52513532
      33.60000000      90.00000000      45.00000000      45.31231091       1.52513693
      33.70000000      90.00000000      45.00000000      45.31235855       1.52513853
      33.80000000      90.00000000      45.00000000      45.31240619       1.52514013
      33.90000000      90.00000000      45.00000000      45.31245384       1.52514174
      34.00000000      90.00000000      45.00000000      45.31250150       1.52514334
      34.10000000      90.00000000      45.00000000      45.31254916       1.52514495
      34.20000000      90.00000000      45.00000000      45.31259683       1.52514655
      34.30000000      90.00000000      45.00000000      45.31264451       1.52514815
      34.40000000      90.00000000      45.00000000      45.31269219       1.52514976
      34.50000000      90.00000000      45.00000000      45.31273988       1.52515136
      34.60000000      90.00000000      45.00000000      45.31278757       1.52515297
      34.70000000      90.00000000      45.00000000      45.31283527       1.52515457
      34.80000000      90.00000000      45.00000000      45.31288298       1.52515618
      34.90000000      90.00000000      45.00000000      45.31293069       1.52515779
      35.00000000      90.00000000      45.00000000      45.31297840       1.52515939
      35.10000000      90.00000000      45.00000000      45.31302613       1.52516100
      35.20000000      90.00000000      45.00000000      45.31307386       1.52516261
      35.30000000      90.00000000      45.00000000      45.31312160       1.52516421
      35.40000000      90.00000000      45.00000000      45.31316934       1.52516582
      35.50000000      90.00000000      45.00000000      45.31321709       1.52516743
      35.60000000      90.00000000      45.00000000      45.31326484       1.52516903
      35.70000000      90.00000000      45.00000000      45.31331260       1.52517064
      35.80000000      90.00000000      45.00000000      45.31336037       1.52517225
      35.90000000      90.00000000      45.00000000      45.31340814       1.52517386
      36.00000000      90.00000000      45.00000000      45.31345592       1.52517547
      36.10000000      90.00000000      45.00000000      45.31350371       1.52517707
      36.20000000      90.00000000      45.00000000      45.31355150       1.52517868
      36.30000000      90.00000000      45.00000000      45.31359929       1.52518029
      36.40000000      90.00000000      45.00000000      45.31364710       1.52518190
      36.50000000      90.00000000      45.00000000      45.31369491       1.52518351
      36.60000000      90.00000000      45.00000000      45.31374272       1.52518512
      36.70000000      90.00000000      45.00000000      45.31379055       1.52518673
      36.80000000      90.00000000      45.00000000      45.31383837       1.52518834
      36.90000000      90.00000000      45.00000000      45.31388621       1.52518995
      37.00000000      90.00000000      45.00000000      45.31393405       1.52519156
      37.10000000      90.00000000      45.00000000      45.31398189       1.52519317
      37.20000000      90.00000000      45.00000000      45.31402975       1.52519478
      37.30000000      90.00000000      45.00000000      45.31407761       1.52519639
      37.40000000      90.00000000      45.00000000      45.31412547       1.52519800
      37.50000000      90.00000000      45.00000000      45.31417334       1.52519961
      37.60000000      90.00000000      45.00000000      45.31422122       1.52520122
      37.70000000      90.00000000      45.00000000      45.31426910       1.52520284
      37.80000000      90.00000000      45.00000000      45.31431699       1.52520445
      37.90000000      90.00000000      45.00000000      45.31436489       1.52520606
      38.00000000      90.00000000      45.00000000      45.31441279       1.52520767
      38.10000000      90.00000000      45.00000000      45.31446070       1.52520928
      38.20000000      90.00000000      45.00000000      45.31450861       1.52521090
      38.30000000      90.00000000      45.00000000      45.31455653       1.52521251
      38.40000000      90.00000000      45.00000000      45.31460446       1.52521412
      38.50000000      90.00000000      45.00000000      45.31465239       1.52521574
      38.60000000      90.00000000      45.00000000      45.31470033       1.52521735
      38.70000000      90.00000000      45.00000000      45.31474828       1.52521896
      38.80000000      90.00000000      45.00000000      45.31479623       1.52522058
      38.90000000      90.00000000      45.00000000      45.31484418       1.52522219
      39.00000000      90.00000000      45.00000000      45.31489215       1.52522381
      39.10000000      90.00000000      45.00000000      45.31494012       1.52522542
      39.20000000      90.00000000      45.00000000      45.31498809       1.52522704
      39.30000000      90.00000000      45.00000000      45.31503607       1.52522865
      39.40000000      90.00000000      45.00000000      45.31508406       1.52523027
      39.50000000      90.00000000      45.00000000      45.31513206       1.52523188
      39.60000000      90.00000000      45.00000000      45.31518006       1.52523350
      39.70000000      90.00000000      45.00000000      45.31522806       1.52523511
      39.80000000      90.00000000      45.00000000      45.31527608       1.52523673
      39.90000000      90.00000000      45.00000000      45.31532410       1.52523834
      40.00000000      90.00000000      45.00000000      45.31537212       1.52523996
