 # applied field (T), theta (degree), phi (degree), abs [muB/unitcell], abs [T]
       0.00000000       0.00000000       0.00000000      43.30624891       1.45761622
       0.10000000       0.22623003     360.00000000      43.30624823       1.45761620
       0.20000000       0.45246023     360.00000000      43.30624619       1.45761613
       0.30000000       0.62231076     360.00000000      43.30624427       1.45761606
       0.40000000       0.84854160     360.00000000      43.30624003       1.45761592
       0.50000000       1.07477303     360.00000000      43.30623444       1.45761573
       0.60000000       1.30100521     360.00000000      43.30622751       1.45761550
       0.70000000       1.47085761     360.00000000      43.30622260       1.45761533
       0.80000000       1.69709147     360.00000000      43.30621348       1.45761503
       0.90000000       1.92332651     360.00000000      43.30620303       1.45761468
       1.00000000       2.14956288     360.00000000      43.30619124       1.45761428
       1.10000000       2.31941878     360.00000000      43.30618338       1.45761401
       1.20000000       2.54565786     360.00000000      43.30616946       1.45761355
       1.30000000       2.77189872     360.00000000      43.30615421       1.45761303
       1.40000000       2.99814150     360.00000000      43.30613766       1.45761248
       1.50000000       3.22438636     360.00000000      43.30611981       1.45761187
       1.60000000       3.39424905     360.00000000      43.30610830       1.45761149
       1.70000000       3.62049792     360.00000000      43.30608838       1.45761082
       1.80000000       3.84674931     360.00000000      43.30606719       1.45761010
       1.90000000       4.07300337     360.00000000      43.30604474       1.45760935
       2.00000000       4.24287327     360.00000000      43.30603048       1.45760887
       2.10000000       4.46913237     360.00000000      43.30600604       1.45760804
       2.20000000       4.69539458     360.00000000      43.30598037       1.45760718
       2.30000000       4.92166004     360.00000000      43.30595349       1.45760628
       2.40000000       5.09153880     360.00000000      43.30593661       1.45760571
       2.50000000       5.31781032     360.00000000      43.30590783       1.45760474
       2.60000000       5.54408554     360.00000000      43.30587788       1.45760373
       2.70000000       5.77036461     360.00000000      43.30584677       1.45760268
       2.80000000       5.99664768     360.00000000      43.30581453       1.45760160
       2.90000000       6.16654000     360.00000000      43.30579453       1.45760093
       3.00000000       6.39283044     360.00000000      43.30576053       1.45759978
       3.10000000       6.61912531     360.00000000      43.30572544       1.45759860
       3.20000000       6.84542477     360.00000000      43.30568928       1.45759738
       3.30000000       7.01532965     360.00000000      43.30566706       1.45759664
       3.40000000       7.24163750     360.00000000      43.30562927       1.45759536
       3.50000000       7.46795036     360.00000000      43.30559046       1.45759406
       3.60000000       7.69426841     360.00000000      43.30555067       1.45759272
       3.70000000       7.86418748     360.00000000      43.30552645       1.45759190
       3.80000000       8.09051493     360.00000000      43.30548517       1.45759051
       3.90000000       8.31684799     360.00000000      43.30544296       1.45758909
       4.00000000       8.54318681     360.00000000      43.30539986       1.45758764
       4.10000000       8.76953155     360.00000000      43.30535588       1.45758616
       4.20000000       8.93947094     360.00000000      43.30532943       1.45758527
       4.30000000       9.16582638     360.00000000      43.30528416       1.45758375
       4.40000000       9.39218817     360.00000000      43.30523809       1.45758220
       4.50000000       9.61855646     360.00000000      43.30519125       1.45758062
       4.60000000       9.78851372     360.00000000      43.30516337       1.45757968
       4.70000000      10.01489372     360.00000000      43.30511542       1.45757807
       4.80000000      10.24128065     360.00000000      43.30506677       1.45757643
       4.90000000      10.46767467     360.00000000      43.30501745       1.45757477
       5.00000000      10.69407593     360.00000000      43.30496750       1.45757309
       5.10000000      10.86405817     360.00000000      43.30493821       1.45757210
       5.20000000      11.09047243     360.00000000      43.30488740       1.45757039
       5.30000000      11.31689436     360.00000000      43.30483603       1.45756866
       5.40000000      11.54332411     360.00000000      43.30478415       1.45756692
       5.50000000      11.76976184     360.00000000      43.30473179       1.45756516
       5.60000000      11.93977165     360.00000000      43.30470161       1.45756414
       5.70000000      12.16622365     360.00000000      43.30464865       1.45756236
       5.80000000      12.39268407     360.00000000      43.30459531       1.45756056
       5.90000000      12.61915304     360.00000000      43.30454160       1.45755875
       6.00000000      12.78918642     360.00000000      43.30451114       1.45755773
       6.10000000      13.01567068     360.00000000      43.30445708       1.45755591
       6.20000000      13.24216391     360.00000000      43.30440276       1.45755408
       6.30000000      13.46866629     360.00000000      43.30434822       1.45755225
       6.40000000      13.69517795     360.00000000      43.30429350       1.45755040
       6.50000000      13.86524353     360.00000000      43.30426319       1.45754938
       6.60000000      14.09177175     360.00000000      43.30420842       1.45754754
       6.70000000      14.31830968     360.00000000      43.30415357       1.45754569
       6.80000000      14.54485748     360.00000000      43.30409869       1.45754385
       6.90000000      14.77141530     360.00000000      43.30404382       1.45754200
       7.00000000      14.94151563     360.00000000      43.30401430       1.45754101
       7.10000000      15.16809128     360.00000000      43.30395971       1.45753917
       7.20000000      15.39467737     360.00000000      43.30390523       1.45753734
       7.30000000      15.62127405     360.00000000      43.30385091       1.45753551
       7.40000000      15.84788148     360.00000000      43.30379679       1.45753369
       7.50000000      16.01801913     360.00000000      43.30376876       1.45753274
       7.60000000      16.24464564     360.00000000      43.30371527       1.45753094
       7.70000000      16.47128333     360.00000000      43.30366210       1.45752915
       7.80000000      16.69793233     360.00000000      43.30360930       1.45752738
       7.90000000      16.92459280     360.00000000      43.30355692       1.45752561
       8.00000000      17.09477031     360.00000000      43.30353108       1.45752474
       8.10000000      17.32145113     360.00000000      43.30347968       1.45752301
       8.20000000      17.54814384     360.00000000      43.30342883       1.45752130
       8.30000000      17.77484859     360.00000000      43.30337855       1.45751961
       8.40000000      18.00156553     360.00000000      43.30332891       1.45751794
       8.50000000      18.22829481     360.00000000      43.30327994       1.45751629
       8.60000000      18.39852398     360.00000000      43.30325775       1.45751554
       8.70000000      18.62527513     360.00000000      43.30321024       1.45751394
       8.80000000      18.85203904     360.00000000      43.30316354       1.45751237
       8.90000000      19.07881585     360.00000000      43.30311769       1.45751083
       9.00000000      19.30560572     360.00000000      43.30307276       1.45750932
       9.10000000      19.47588034     360.00000000      43.30305447       1.45750870
       9.20000000      19.70269333     360.00000000      43.30301139       1.45750725
       9.30000000      19.92951979     360.00000000      43.30296935       1.45750584
       9.40000000      20.15635987     360.00000000      43.30292841       1.45750446
       9.50000000      20.38321372     360.00000000      43.30288860       1.45750312
       9.60000000      20.61008150     360.00000000      43.30284999       1.45750182
       9.70000000      20.78041451     360.00000000      43.30283751       1.45750140
       9.80000000      21.00730690     360.00000000      43.30280126       1.45750018
       9.90000000      21.23421363     360.00000000      43.30276634       1.45749900
      10.00000000      21.46113483     360.00000000      43.30273281       1.45749787
      10.10000000      21.68807067     360.00000000      43.30270072       1.45749679
      10.20000000      21.91502128     360.00000000      43.30267012       1.45749576
      10.30000000      22.14198683     360.00000000      43.30264106       1.45749479
      10.40000000      22.31239307     360.00000000      43.30263695       1.45749465
      10.50000000      22.53938498     360.00000000      43.30261086       1.45749377
      10.60000000      22.76639223     360.00000000      43.30258646       1.45749295
      10.70000000      22.99341497     360.00000000      43.30256380       1.45749219
      10.80000000      23.22045333     360.00000000      43.30254294       1.45749148
      10.90000000      23.44750748     360.00000000      43.30252392       1.45749084
      11.00000000      23.67457756     360.00000000      43.30250681       1.45749027
      11.10000000      23.84506203     360.00000000      43.30251284       1.45749047
      11.20000000      24.07216021     360.00000000      43.30249933       1.45749002
      11.30000000      24.29927472     360.00000000      43.30248786       1.45748963
      11.40000000      24.52640572     360.00000000      43.30247850       1.45748931
      11.50000000      24.75355334     360.00000000      43.30247129       1.45748907
      11.60000000      24.98071774     360.00000000      43.30246630       1.45748890
      11.70000000      25.20789905     360.00000000      43.30246358       1.45748881
      11.80000000      25.43509744     360.00000000      43.30246318       1.45748880
      11.90000000      25.60567784     360.00000000      43.30248307       1.45748947
      12.00000000      25.83290631     360.00000000      43.30248700       1.45748960
      12.10000000      26.06015224     360.00000000      43.30249340       1.45748982
      12.20000000      26.28741578     360.00000000      43.30250233       1.45749012
      12.30000000      26.51469708     360.00000000      43.30251383       1.45749050
      12.40000000      26.74199629     360.00000000      43.30252798       1.45749098
      12.50000000      26.96931354     360.00000000      43.30254482       1.45749155
      12.60000000      27.19664899     360.00000000      43.30256440       1.45749221
      12.70000000      27.42400278     360.00000000      43.30258678       1.45749296
      12.80000000      27.65137505     360.00000000      43.30261202       1.45749381
      12.90000000      27.82208535     360.00000000      43.30265271       1.45749518
      13.00000000      28.04949016     360.00000000      43.30268319       1.45749620
      13.10000000      28.27691384     360.00000000      43.30271668       1.45749733
      13.20000000      28.50435654     360.00000000      43.30275322       1.45749856
      13.30000000      28.73181841     360.00000000      43.30279288       1.45749990
      13.40000000      28.95929959     360.00000000      43.30283570       1.45750134
      13.50000000      29.18680021     360.00000000      43.30288174       1.45750289
      13.60000000      29.41432043     360.00000000      43.30293104       1.45750455
      13.70000000      29.64186038     360.00000000      43.30298368       1.45750632
      13.80000000      29.86942021     360.00000000      43.30303969       1.45750820
      13.90000000      30.09700006     360.00000000      43.30309913       1.45751020
      14.00000000      30.32460007     360.00000000      43.30316205       1.45751232
      14.10000000      30.55222039     360.00000000      43.30322850       1.45751456
      14.20000000      30.77986114     360.00000000      43.30329854       1.45751692
      14.30000000      31.00752248     360.00000000      43.30337222       1.45751940
      14.40000000      31.23520455     360.00000000      43.30344958       1.45752200
      14.50000000      31.46290747     360.00000000      43.30353069       1.45752473
      14.60000000      31.69063141     360.00000000      43.30361558       1.45752759
      14.70000000      31.91837648     360.00000000      43.30370430       1.45753057
      14.80000000      32.14614284     360.00000000      43.30379692       1.45753369
      14.90000000      32.37393062     360.00000000      43.30389347       1.45753694
      15.00000000      32.60173995     360.00000000      43.30399400       1.45754032
      15.10000000      32.82957099     360.00000000      43.30409857       1.45754384
      15.20000000      33.05742386     360.00000000      43.30420722       1.45754750
      15.30000000      33.28529871     360.00000000      43.30431999       1.45755130
      15.40000000      33.51319566     360.00000000      43.30443694       1.45755523
      15.50000000      33.74111486     360.00000000      43.30455810       1.45755931
      15.60000000      33.96905644     360.00000000      43.30468353       1.45756353
      15.70000000      34.19702053     360.00000000      43.30481326       1.45756790
      15.80000000      34.42500728     360.00000000      43.30494735       1.45757241
      15.90000000      34.65301682     360.00000000      43.30508583       1.45757707
      16.00000000      34.88104928     360.00000000      43.30522875       1.45758188
      16.10000000      35.10910479     360.00000000      43.30537615       1.45758684
      16.20000000      35.33718349     360.00000000      43.30552806       1.45759196
      16.30000000      35.56528551     360.00000000      43.30568454       1.45759722
      16.40000000      35.79341099     360.00000000      43.30584561       1.45760265
      16.50000000      36.07843902     360.00000000      43.30603003       1.45760885
      16.60000000      36.30661797     360.00000000      43.30620152       1.45761462
      16.70000000      36.53482080     360.00000000      43.30637773       1.45762056
      16.80000000      36.76304764     360.00000000      43.30655870       1.45762665
      16.90000000      36.99129862     360.00000000      43.30674446       1.45763290
      17.00000000      37.21957386     360.00000000      43.30693505       1.45763931
      17.10000000      37.44787350     360.00000000      43.30713050       1.45764589
      17.20000000      37.67619765     360.00000000      43.30733085       1.45765264
      17.30000000      37.96147750     360.00000000      43.30756418       1.45766049
      17.40000000      38.18985753     360.00000000      43.30777558       1.45766761
      17.50000000      38.41826250     360.00000000      43.30799197       1.45767489
      17.60000000      38.64669251     360.00000000      43.30821338       1.45768234
      17.70000000      38.87514769     360.00000000      43.30843984       1.45768996
      17.80000000      39.16059359     360.00000000      43.30870570       1.45769891
      17.90000000      39.38910612     360.00000000      43.30894354       1.45770692
      18.00000000      39.61764422     360.00000000      43.30918651       1.45771509
      18.10000000      39.84620801     360.00000000      43.30943462       1.45772345
      18.20000000      40.07479759     360.00000000      43.30968789       1.45773197
      18.30000000      40.36041378     360.00000000      43.30998718       1.45774204
      18.40000000      40.58906212     360.00000000      43.31025209       1.45775096
      18.50000000      40.81773665     360.00000000      43.31052223       1.45776005
      18.60000000      41.10346043     360.00000000      43.31084253       1.45777083
      18.70000000      41.33219455     360.00000000      43.31112444       1.45778032
      18.80000000      41.56095522     360.00000000      43.31141161       1.45778999
      18.90000000      41.84678812     360.00000000      43.31175313       1.45780148
      19.00000000      42.07560920     360.00000000      43.31205214       1.45781155
      19.10000000      42.30445716     360.00000000      43.31235646       1.45782179
      19.20000000      42.59040065     360.00000000      43.31271933       1.45783400
      19.30000000      42.81930980     360.00000000      43.31303555       1.45784465
      19.40000000      43.04824617     360.00000000      43.31335707       1.45785547
      19.50000000      43.33430164     360.00000000      43.31374138       1.45786840
      19.60000000      43.56329994     360.00000000      43.31407482       1.45787963
      19.70000000      43.84943384     360.00000000      43.31447397       1.45789306
      19.80000000      44.07849456     360.00000000      43.31481931       1.45790469
      19.90000000      44.36470751     360.00000000      43.31523328       1.45791862
      20.00000000      44.59383112     360.00000000      43.31559050       1.45793064
      20.10000000      44.88012372     360.00000000      43.31601925       1.45794507
      20.20000000      45.10931067     360.00000000      43.31638830       1.45795749
      20.30000000      45.39568347     360.00000000      43.31683177       1.45797242
      20.40000000      45.62493419     360.00000000      43.31721258       1.45798524
      20.50000000      45.91138773     360.00000000      43.31767067       1.45800066
      20.60000000      46.14070262     360.00000000      43.31806315       1.45801387
      20.70000000      46.42723741     360.00000000      43.31853575       1.45802977
      20.80000000      46.71381774     360.00000000      43.31901636       1.45804595
      20.90000000      46.94323334     360.00000000      43.31942676       1.45805976
      21.00000000      47.22989563     360.00000000      43.31992165       1.45807642
      21.10000000      47.51660385     360.00000000      43.32042440       1.45809334
      21.20000000      47.74612097     360.00000000      43.32085239       1.45810775
      21.30000000      48.03291178     360.00000000      43.32136912       1.45812514
      21.40000000      48.31974885     360.00000000      43.32189354       1.45814279
      21.50000000      48.60663228     360.00000000      43.32242557       1.45816070
      21.60000000      48.83628839     360.00000000      43.32287673       1.45817588
      21.70000000      49.12325511     360.00000000      43.32342224       1.45819425
      21.80000000      49.41026846     360.00000000      43.32397514       1.45821285
      21.90000000      49.69732850     360.00000000      43.32453532       1.45823171
      22.00000000      49.98443530     360.00000000      43.32510270       1.45825081
      22.10000000      50.27158894     360.00000000      43.32567718       1.45827014
      22.20000000      50.55878945     360.00000000      43.32625866       1.45828971
      22.30000000      50.84603689     360.00000000      43.32684702       1.45830952
      22.40000000      51.13333130     360.00000000      43.32744215       1.45832955
      22.50000000      51.42067270     360.00000000      43.32804394       1.45834980
      22.60000000      51.70806110     360.00000000      43.32865226       1.45837028
      22.70000000      51.99549652     360.00000000      43.32926698       1.45839097
      22.80000000      52.28297896     360.00000000      43.32988798       1.45841187
      22.90000000      52.62790975     360.00000000      43.33062159       1.45843656
      23.00000000      52.91549605     360.00000000      43.33125595       1.45845792
      23.10000000      53.20312930     360.00000000      43.33189614       1.45847946
      23.20000000      53.49080946     360.00000000      43.33254200       1.45850120
      23.30000000      53.83597935     360.00000000      43.33330486       1.45852688
      23.40000000      54.12376302     360.00000000      43.33396271       1.45854902
      23.50000000      54.46905802     360.00000000      43.33473963       1.45857517
      23.60000000      54.75694485     360.00000000      43.33540870       1.45859769
      23.70000000      55.10236452     360.00000000      43.33619872       1.45862428
      23.80000000      55.39035405     360.00000000      43.33687819       1.45864715
      23.90000000      55.73589779     360.00000000      43.33768033       1.45867415
      24.00000000      56.08150920     360.00000000      43.33848867       1.45870136
      24.10000000      56.36965653     360.00000000      43.33918254       1.45872471
      24.20000000      56.71539084     360.00000000      43.34000137       1.45875227
      24.30000000      57.06119210     360.00000000      43.34082549       1.45878001
      24.40000000      57.40706000     360.00000000      43.34165459       1.45880792
      24.50000000      57.75299423     360.00000000      43.34248831       1.45883598
      24.60000000      58.09899445     360.00000000      43.34332632       1.45886418
      24.70000000      58.44506027     360.00000000      43.34416826       1.45889252
      24.80000000      58.79119132     360.00000000      43.34501379       1.45892098
      24.90000000      59.19501122     360.00000000      43.34598925       1.45895381
      25.00000000      59.54128274     360.00000000      43.34684141       1.45898250
      25.10000000      59.88761809     360.00000000      43.34769603       1.45901126
      25.20000000      60.29167648     360.00000000      43.34868093       1.45904441
      25.30000000      60.63814908     360.00000000      43.34953969       1.45907332
      25.40000000      61.04236757     360.00000000      43.35052862       1.45910660
      25.50000000      61.44667140     360.00000000      43.35151895       1.45913993
      25.60000000      61.85105967     360.00000000      43.35251009       1.45917329
      25.70000000      62.25553146     360.00000000      43.35350145       1.45920666
      25.80000000      62.66008578     360.00000000      43.35449244       1.45924002
      25.90000000      63.06472164     360.00000000      43.35548248       1.45927334
      26.00000000      63.46943798     360.00000000      43.35647098       1.45930661
      26.10000000      63.93200609     360.00000000      43.35758635       1.45934415
      26.20000000      64.33689196     360.00000000      43.35856972       1.45937725
      26.30000000      64.79965244     360.00000000      43.35967796       1.45941455
      26.40000000      65.26251345     360.00000000      43.36078123       1.45945169
      26.50000000      65.72547322     360.00000000      43.36187871       1.45948863
      26.60000000      66.18852993     360.00000000      43.36296957       1.45952534
      26.70000000      66.70953257     360.00000000      43.36417828       1.45956603
      26.80000000      67.17278985     360.00000000      43.36525251       1.45960218
      26.90000000      67.69401497     360.00000000      43.36644077       1.45964218
      27.00000000      68.21535431     360.00000000      43.36761667       1.45968176
      27.10000000      68.73680504     360.00000000      43.36877916       1.45972088
      27.20000000      69.31628181     360.00000000      43.37004589       1.45976352
      27.30000000      69.83795907     360.00000000      43.37117683       1.45980159
      27.40000000      70.41768213     360.00000000      43.37240628       1.45984297
      27.50000000      70.99752941     360.00000000      43.37361429       1.45988363
      27.60000000      71.63546745     360.00000000      43.37491013       1.45992724
      27.70000000      72.27354735     360.00000000      43.37617714       1.45996989
      27.80000000      72.96976216     360.00000000      43.37751879       1.46001505
      27.90000000      73.60812183     360.00000000      43.37872075       1.46005550
      28.00000000      74.36265606     360.00000000      43.38008685       1.46010148
      28.10000000      75.11735992     360.00000000      43.38140464       1.46014584
      28.20000000      75.87222423     360.00000000      43.38267202       1.46018849
      28.30000000      76.74337161     360.00000000      43.38406025       1.46023522
      28.40000000      77.61471078     360.00000000      43.38537630       1.46027952
      28.50000000      78.60241448     360.00000000      43.38676985       1.46032642
      28.60000000      79.64843783     360.00000000      43.38813381       1.46037233
      28.70000000      80.81091841     360.00000000      43.38950822       1.46041859
      28.80000000      82.14803915     360.00000000      43.39089936       1.46046541
      28.90000000      83.71801967     360.00000000      43.39226776       1.46051147
      29.00000000      85.86990446     360.00000000      43.39366149       1.46055838
      29.10000000      90.00000000     360.00000000      43.39474232       1.46059476
      29.20000000      90.00000000     360.00000000      43.39478915       1.46059634
      29.30000000      90.00000000     360.00000000      43.39483599       1.46059791
      29.40000000      90.00000000     360.00000000      43.39488283       1.46059949
      29.50000000      90.00000000     360.00000000      43.39492967       1.46060107
      29.60000000      90.00000000     360.00000000      43.39497652       1.46060264
      29.70000000      90.00000000     360.00000000      43.39502338       1.46060422
      29.80000000      90.00000000     360.00000000      43.39507024       1.46060580
      29.90000000      90.00000000     360.00000000      43.39511710       1.46060738
      30.00000000      90.00000000     360.00000000      43.39516397       1.46060895
      30.10000000      90.00000000     360.00000000      43.39521084       1.46061053
      30.20000000      90.00000000     360.00000000      43.39525772       1.46061211
      30.30000000      90.00000000     360.00000000      43.39530460       1.46061369
      30.40000000      90.00000000     360.00000000      43.39535149       1.46061526
      30.50000000      90.00000000     360.00000000      43.39539838       1.46061684
      30.60000000      90.00000000     360.00000000      43.39544528       1.46061842
      30.70000000      90.00000000     360.00000000      43.39549218       1.46062000
      30.80000000      90.00000000     360.00000000      43.39553909       1.46062158
      30.90000000      90.00000000     360.00000000      43.39558600       1.46062316
      31.00000000      90.00000000     360.00000000      43.39563291       1.46062474
      31.10000000      90.00000000     360.00000000      43.39567983       1.46062632
      31.20000000      90.00000000     360.00000000      43.39572676       1.46062790
      31.30000000      90.00000000     360.00000000      43.39577369       1.46062947
      31.40000000      90.00000000     360.00000000      43.39582062       1.46063105
      31.50000000      90.00000000     360.00000000      43.39586756       1.46063263
      31.60000000      90.00000000     360.00000000      43.39591451       1.46063421
      31.70000000      90.00000000     360.00000000      43.39596145       1.46063579
      31.80000000      90.00000000     360.00000000      43.39600841       1.46063737
      31.90000000      90.00000000     360.00000000      43.39605537       1.46063896
      32.00000000      90.00000000     360.00000000      43.39610233       1.46064054
      32.10000000      90.00000000     360.00000000      43.39614930       1.46064212
      32.20000000      90.00000000     360.00000000      43.39619627       1.46064370
      32.30000000      90.00000000     360.00000000      43.39624325       1.46064528
      32.40000000      90.00000000     360.00000000      43.39629023       1.46064686
      32.50000000      90.00000000     360.00000000      43.39633722       1.46064844
      32.60000000      90.00000000     360.00000000      43.39638421       1.46065002
      32.70000000      90.00000000     360.00000000      43.39643121       1.46065161
      32.80000000      90.00000000     360.00000000      43.39647821       1.46065319
      32.90000000      90.00000000     360.00000000      43.39652521       1.46065477
      33.00000000      90.00000000     360.00000000      43.39657222       1.46065635
      33.10000000      90.00000000     360.00000000      43.39661924       1.46065793
      33.20000000      90.00000000     360.00000000      43.39666626       1.46065952
      33.30000000      90.00000000     360.00000000      43.39671328       1.46066110
      33.40000000      90.00000000     360.00000000      43.39676031       1.46066268
      33.50000000      90.00000000     360.00000000      43.39680735       1.46066427
      33.60000000      90.00000000     360.00000000      43.39685439       1.46066585
      33.70000000      90.00000000     360.00000000      43.39690143       1.46066743
      33.80000000      90.00000000     360.00000000      43.39694848       1.46066902
      33.90000000      90.00000000     360.00000000      43.39699553       1.46067060
      34.00000000      90.00000000     360.00000000      43.39704259       1.46067218
      34.10000000      90.00000000     360.00000000      43.39708966       1.46067377
      34.20000000      90.00000000     360.00000000      43.39713672       1.46067535
      34.30000000      90.00000000     360.00000000      43.39718380       1.46067694
      34.40000000      90.00000000     360.00000000      43.39723087       1.46067852
      34.50000000      90.00000000     360.00000000      43.39727796       1.46068011
      34.60000000      90.00000000     360.00000000      43.39732504       1.46068169
      34.70000000      90.00000000     360.00000000      43.39737214       1.46068328
      34.80000000      90.00000000     360.00000000      43.39741923       1.46068486
      34.90000000      90.00000000     360.00000000      43.39746633       1.46068645
      35.00000000      90.00000000     360.00000000      43.39751344       1.46068803
      35.10000000      90.00000000     360.00000000      43.39756055       1.46068962
      35.20000000      90.00000000     360.00000000      43.39760767       1.46069120
      35.30000000      90.00000000     360.00000000      43.39765479       1.46069279
      35.40000000      90.00000000     360.00000000      43.39770191       1.46069438
      35.50000000      90.00000000     360.00000000      43.39774904       1.46069596
      35.60000000      90.00000000     360.00000000      43.39779618       1.46069755
      35.70000000      90.00000000     360.00000000      43.39784332       1.46069913
      35.80000000      90.00000000     360.00000000      43.39789046       1.46070072
      35.90000000      90.00000000     360.00000000      43.39793761       1.46070231
      36.00000000      90.00000000     360.00000000      43.39798477       1.46070390
      36.10000000      90.00000000     360.00000000      43.39803193       1.46070548
      36.20000000      90.00000000     360.00000000      43.39807909       1.46070707
      36.30000000      90.00000000     360.00000000      43.39812626       1.46070866
      36.40000000      90.00000000     360.00000000      43.39817343       1.46071025
      36.50000000      90.00000000     360.00000000      43.39822061       1.46071183
      36.60000000      90.00000000     360.00000000      43.39826779       1.46071342
      36.70000000      90.00000000     360.00000000      43.39831498       1.46071501
      36.80000000      90.00000000     360.00000000      43.39836217       1.46071660
      36.90000000      90.00000000     360.00000000      43.39840937       1.46071819
      37.00000000      90.00000000     360.00000000      43.39845657       1.46071978
      37.10000000      90.00000000     360.00000000      43.39850378       1.46072137
      37.20000000      90.00000000     360.00000000      43.39855099       1.46072295
      37.30000000      90.00000000     360.00000000      43.39859821       1.46072454
      37.40000000      90.00000000     360.00000000      43.39864543       1.46072613
      37.50000000      90.00000000     360.00000000      43.39869266       1.46072772
      37.60000000      90.00000000     360.00000000      43.39873989       1.46072931
      37.70000000      90.00000000     360.00000000      43.39878713       1.46073090
      37.80000000      90.00000000     360.00000000      43.39883437       1.46073249
      37.90000000      90.00000000     360.00000000      43.39888161       1.46073408
      38.00000000      90.00000000     360.00000000      43.39892886       1.46073567
      38.10000000      90.00000000     360.00000000      43.39897612       1.46073726
      38.20000000      90.00000000     360.00000000      43.39902338       1.46073885
      38.30000000      90.00000000     360.00000000      43.39907065       1.46074044
      38.40000000      90.00000000     360.00000000      43.39911792       1.46074204
      38.50000000      90.00000000     360.00000000      43.39916519       1.46074363
      38.60000000      90.00000000     360.00000000      43.39921247       1.46074522
      38.70000000      90.00000000     360.00000000      43.39925976       1.46074681
      38.80000000      90.00000000     360.00000000      43.39930705       1.46074840
      38.90000000      90.00000000     360.00000000      43.39935434       1.46074999
      39.00000000      90.00000000     360.00000000      43.39940164       1.46075159
      39.10000000      90.00000000     360.00000000      43.39944894       1.46075318
      39.20000000      90.00000000     360.00000000      43.39949625       1.46075477
      39.30000000      90.00000000     360.00000000      43.39954357       1.46075636
      39.40000000      90.00000000     360.00000000      43.39959088       1.46075796
      39.50000000      90.00000000     360.00000000      43.39963821       1.46075955
      39.60000000      90.00000000     360.00000000      43.39968554       1.46076114
      39.70000000      90.00000000     360.00000000      43.39973287       1.46076273
      39.80000000      90.00000000     360.00000000      43.39978021       1.46076433
      39.90000000      90.00000000     360.00000000      43.39982755       1.46076592
      40.00000000      90.00000000     360.00000000      43.39987490       1.46076751
