 # applied field (T), theta (degree), phi (degree), abs [muB/unitcell], abs [T]
       0.00000000      90.00000000      45.42827637      54.84698292       1.90992354
       0.10000000      89.71887424      45.42827637      54.84697227       1.90992317
       0.20000000      89.43774840      44.57172362      54.84694032       1.90992206
       0.30000000      89.21274066      45.42827638      54.84690029       1.90992066
       0.40000000      88.93161443      45.42827639      54.84683031       1.90991823
       0.50000000      88.65048786      44.57172360      54.84673904       1.90991505
       0.60000000      88.36936087      45.42827641      54.84662647       1.90991113
       0.70000000      88.14435199      45.42827642      54.84652311       1.90990753
       0.80000000      87.86322400      44.57172356      54.84637253       1.90990229
       0.90000000      87.58209534      44.57172354      54.84620065       1.90989630
       1.00000000      87.30096591      45.42827648      54.84600750       1.90988957
       1.10000000      87.01983562      44.57172350      54.84579306       1.90988211
       1.20000000      86.79482386      44.57172348      54.84560968       1.90987572
       1.30000000      86.51369181      44.57172345      54.84535726       1.90986693
       1.40000000      86.23255866      45.42827658      54.84508356       1.90985740
       1.50000000      85.95142432      44.57172338      54.84478861       1.90984713
       1.60000000      85.72640913      44.57172336      54.84454199       1.90983854
       1.70000000      85.44527242      44.57172332      54.84420907       1.90982695
       1.80000000      85.16413426      44.57172328      54.84385491       1.90981461
       1.90000000      84.93911591      45.42827675      54.84356180       1.90980441
       2.00000000      84.65797495      45.42827680      54.84316972       1.90979075
       2.10000000      84.37683229      45.42827684      54.84275641       1.90977636
       2.20000000      84.09568784      44.57172311      54.84232187       1.90976123
       2.30000000      83.87066431      45.42827693      54.84196564       1.90974883
       2.40000000      83.58951644      44.57172302      54.84149324       1.90973237
       2.50000000      83.30836670      45.00000000      54.84099924       1.90971517
       2.60000000      83.08333872      45.00000000      54.84059662       1.90970115
       2.70000000      82.80218496      45.00000000      54.84006520       1.90968265
       2.80000000      82.52102890      45.00000000      54.83951260       1.90966340
       2.90000000      82.29599591      45.00000000      54.83906366       1.90964777
       3.00000000      82.01483555      45.00000000      54.83847329       1.90962721
       3.10000000      81.73367264      45.00000000      54.83786177       1.90960592
       3.20000000      81.50863409      45.00000000      54.83736658       1.90958867
       3.30000000      81.22746641      45.00000000      54.83671734       1.90956606
       3.40000000      81.00242401      45.00000000      54.83619254       1.90954779
       3.50000000      80.72125128      45.00000000      54.83550562       1.90952387
       3.60000000      80.44007560      45.00000000      54.83479762       1.90949921
       3.70000000      80.21502673      45.00000000      54.83422668       1.90947933
       3.80000000      79.93384555      45.00000000      54.83348106       1.90945337
       3.90000000      79.70879198      44.56340598      54.83288101       1.90943247
       4.00000000      79.42760499      45.43659411      54.83209783       1.90940520
       4.10000000      79.20254702      44.56340582      54.83146787       1.90938326
       4.20000000      78.92135395      45.43659427      54.83064715       1.90935468
       4.30000000      78.69629108      44.56340565      54.82998774       1.90933172
       4.40000000      78.41509164      44.56340555      54.82912955       1.90930184
       4.50000000      78.19002365      45.43659453      54.82844073       1.90927785
       4.60000000      77.90881753      44.56340537      54.82754512       1.90924666
       4.70000000      77.68374420      44.56340529      54.82682692       1.90922165
       4.80000000      77.40253112      44.56340518      54.82589395       1.90918916
       4.90000000      77.12131434      45.00000000      54.82493963       1.90915593
       5.00000000      76.95237109      45.00000000      54.82438558       1.90913664
       5.10000000      76.67114749      45.00000000      54.82339890       1.90910228
       5.20000000      76.44606014      45.00000000      54.82260923       1.90907478
       5.30000000      76.16482886      45.00000000      54.82158532       1.90903913
       5.40000000      75.93973537      45.00000000      54.82076645       1.90901061
       5.50000000      75.71463911      45.00000000      54.81993474       1.90898165
       5.60000000      75.43339625      45.00000000      54.81885734       1.90894413
       5.70000000      75.20829352      45.00000000      54.81799649       1.90891415
       5.80000000      74.98318786      45.00000000      54.81712285       1.90888373
       5.90000000      74.70193243      45.44524141      54.81599256       1.90884437
       6.00000000      74.47681995      44.55475848      54.81508986       1.90881294
       6.10000000      74.25170441      44.55475837      54.81417439       1.90878106
       6.20000000      74.02658575      44.55475826      54.81324617       1.90874873
       6.30000000      73.74531388      45.44524188      54.81204600       1.90870694
       6.40000000      73.52018797      44.55475801      54.81108883       1.90867361
       6.50000000      73.29505880      45.44524211      54.81011894       1.90863984
       6.60000000      73.01377375      45.00000000      54.80886531       1.90859618
       6.70000000      72.84479092      45.00000000      54.80814062       1.90857094
       6.80000000      72.61965169      45.00000000      54.80713266       1.90853584
       6.90000000      72.33835321      45.00000000      54.80583105       1.90849052
       7.00000000      72.11320608      45.00000000      54.80479432       1.90845442
       7.10000000      71.88805541      45.00000000      54.80374495       1.90841788
       7.20000000      71.66290114      45.00000000      54.80268296       1.90838089
       7.30000000      71.43774323      45.00000000      54.80160836       1.90834347
       7.40000000      71.21258116      44.54576195      54.80052164       1.90830563
       7.50000000      70.98741583      45.45423818      54.79942186       1.90826733
       7.60000000      70.76224672      44.54576168      54.79830951       1.90822860
       7.70000000      70.53707378      45.45423845      54.79718461       1.90818943
       7.80000000      70.31189698      45.45423859      54.79604716       1.90814982
       7.90000000      70.08671626      44.54576127      54.79489718       1.90810977
       8.00000000      69.86153157      44.54576113      54.79373470       1.90806929
       8.10000000      69.63634339      45.00000000      54.79255922       1.90802836
       8.20000000      69.41115064      45.00000000      54.79137176       1.90798701
       8.30000000      69.18595378      45.00000000      54.79017182       1.90794522
       8.40000000      69.01692437      45.00000000      54.78929196       1.90791458
       8.50000000      68.79172033      45.00000000      54.78807054       1.90787205
       8.60000000      68.56651205      45.00000000      54.78683669       1.90782908
       8.70000000      68.34129949      45.00000000      54.78559044       1.90778568
       8.80000000      68.11608205      44.53639421      54.78433231       1.90774187
       8.90000000      67.89086080      44.53639405      54.78306129       1.90769761
       9.00000000      67.72181349      45.46360607      54.78212986       1.90766518
       9.10000000      67.49658457      44.53639377      54.78083752       1.90762017
       9.20000000      67.27135116      44.53639361      54.77953284       1.90757474
       9.30000000      67.04611319      45.46360655      54.77821584       1.90752888
       9.40000000      66.87705422      45.00000000      54.77725057       1.90749527
       9.50000000      66.65180830      45.00000000      54.77591236       1.90744867
       9.60000000      66.42655770      45.00000000      54.77456188       1.90740164
       9.70000000      66.25748888      45.00000000      54.77357285       1.90736720
       9.80000000      66.03223009      45.00000000      54.77220124       1.90731944
       9.90000000      65.80696648      45.00000000      54.77081741       1.90727125
      10.00000000      65.63788814      45.00000000      54.76980421       1.90723596
      10.10000000      65.41261549      45.47336795      54.76839988       1.90718706
      10.20000000      65.18733853      44.52663187      54.76698283       1.90713772
      10.30000000      65.01825040      45.47336827      54.76594556       1.90710160
      10.40000000      64.79296479      44.52663155      54.76450756       1.90705152
      10.50000000      64.62387033      44.52663141      54.76345510       1.90701487
      10.60000000      64.39857593      44.52663122      54.76199619       1.90696407
      10.70000000      64.22947569      45.00000000      54.76092805       1.90692687
      10.80000000      64.00417236      45.00000000      54.75944830       1.90687534
      10.90000000      63.83506493      45.00000000      54.75836560       1.90683764
      11.00000000      63.60975252      45.00000000      54.75686508       1.90678539
      11.10000000      63.44063843      45.00000000      54.75576732       1.90674716
      11.20000000      63.21531679      45.00000000      54.75424607       1.90669419
      11.30000000      63.04619525      44.51645007      54.75313389       1.90665546
      11.40000000      62.87707153      45.48355009      54.75201483       1.90661649
      11.50000000      62.65173652      44.51644971      54.75046426       1.90656249
      11.60000000      62.48260589      45.48355044      54.74933026       1.90652301
      11.70000000      62.31347232      44.51644940      54.74818999       1.90648330
      11.80000000      62.08812364      45.48355080      54.74661022       1.90642829
      11.90000000      61.91898372      45.00000000      54.74545450       1.90638804
      12.00000000      61.74984008      45.00000000      54.74429312       1.90634760
      12.10000000      61.52447744      45.00000000      54.74268428       1.90629157
      12.20000000      61.35532658      45.00000000      54.74150809       1.90625062
      12.30000000      61.18617265      45.00000000      54.74032570       1.90620944
      12.40000000      61.01701563      45.00000000      54.73913711       1.90616805
      12.50000000      60.79163366      44.50582045      54.73749140       1.90611074
      12.60000000      60.62246921      44.50582028      54.73628810       1.90606884
      12.70000000      60.45330161      44.50582011      54.73507863       1.90602672
      12.80000000      60.28413083      45.49418006      54.73386300       1.90598439
      12.90000000      60.11495686      44.50581976      54.73264122       1.90594185
      13.00000000      59.94577967      45.49418041      54.73141330       1.90589909
      13.10000000      59.72037126      45.00000000      54.72971221       1.90583985
      13.20000000      59.55118634      45.00000000      54.72846972       1.90579658
      13.30000000      59.38199814      45.00000000      54.72722112       1.90575310
      13.40000000      59.21280664      45.00000000      54.72596642       1.90570941
      13.50000000      59.04361181      45.00000000      54.72470563       1.90566551
      13.60000000      58.87441364      45.00000000      54.72343876       1.90562139
      13.70000000      58.70521128      45.50528691      54.72216646       1.90557709
      13.80000000      58.53600636      44.49471290      54.72088747       1.90553255
      13.90000000      58.36679803      44.49471272      54.71960243       1.90548780
      14.00000000      58.19758627      44.49471253      54.71831135       1.90544284
      14.10000000      58.02837107      45.50528766      54.71701424       1.90539767
      14.20000000      57.85915239      45.50528785      54.71571111       1.90535229
      14.30000000      57.68993107      45.00000000      54.71440135       1.90530668
      14.40000000      57.52070540      45.00000000      54.71308621       1.90526089
      14.50000000      57.35147620      45.00000000      54.71176509       1.90521488
      14.60000000      57.18224345      45.00000000      54.71043800       1.90516867
      14.70000000      57.01300713      45.00000000      54.70910493       1.90512225
      14.80000000      56.90001797      45.00000000      54.70827139       1.90509322
      14.90000000      56.73077492      44.48309502      54.70692935       1.90504649
      15.00000000      56.56152912      44.48309481      54.70558071       1.90499952
      15.10000000      56.39227968      45.51690539      54.70422614       1.90495236
      15.20000000      56.22302656      44.48309441      54.70286566       1.90490498
      15.30000000      56.05376975      45.51690579      54.70149927       1.90485740
      15.40000000      55.94076776      45.51690594      54.70064514       1.90482765
      15.50000000      55.77150580      45.00000000      54.69926855       1.90477972
      15.60000000      55.60223921      45.00000000      54.69788675       1.90473160
      15.70000000      55.43296884      45.00000000      54.69649909       1.90468328
      15.80000000      55.26369468      45.00000000      54.69510556       1.90463475
      15.90000000      55.15068182      45.00000000      54.69423468       1.90460442
      16.00000000      54.98140146      45.00000000      54.69283171       1.90455557
      16.10000000      54.81211630      44.47093014      54.69142361       1.90450654
      16.20000000      54.69909715      45.52907002      54.69054331       1.90447588
      16.30000000      54.52980663      44.47092976      54.68912511       1.90442650
      16.40000000      54.36051221      44.47092954      54.68770112       1.90437691
      16.50000000      54.24748666      44.47092939      54.68681145       1.90434593
      16.60000000      54.07818584      45.52907083      54.68537811       1.90429601
      16.70000000      53.90888200      45.00000000      54.68393832       1.90424588
      16.80000000      53.79584996      45.00000000      54.68303933       1.90421457
      16.90000000      53.62653868      45.00000000      54.68159093       1.90416413
      17.00000000      53.51350257      45.00000000      54.68068622       1.90413263
      17.10000000      53.34418474      45.00000000      54.67922855       1.90408187
      17.20000000      53.17486284      45.00000000      54.67776517       1.90403091
      17.30000000      53.11810274      45.00000000      54.67740557       1.90401839
      17.40000000      52.89249053      45.54182117      54.67537937       1.90394783
      17.50000000      52.77944361      45.54182134      54.67445976       1.90391581
      17.60000000      52.61010834      44.45817843      54.67297799       1.90386421
      17.70000000      52.49705721      44.45817826      54.67205273       1.90383199
      17.80000000      52.32771517      45.54182198      54.67056181       1.90378007
      17.90000000      52.21466080      45.00000000      54.66963021       1.90374763
      18.00000000      52.04531192      45.00000000      54.66813018       1.90369539
      18.10000000      51.93225226      45.00000000      54.66719370       1.90366278
      18.20000000      51.76289647      45.00000000      54.66568459       1.90361023
      18.30000000      51.64983249      45.00000000      54.66474252       1.90357743
      18.40000000      51.53676683      45.00000000      54.66379834       1.90354455
      18.50000000      51.36740138      45.00000000      54.66227674       1.90349156
      18.60000000      51.25433029      45.55520192      54.66132776       1.90345851
      18.70000000      51.08495778      44.44479783      54.65979716       1.90340522
      18.80000000      50.97188332      45.55520235      54.65884190       1.90337195
      18.90000000      50.85880715      44.44479747      54.65788455       1.90333861
      19.00000000      50.68942476      44.44479722      54.65634158       1.90328488
      19.10000000      50.57634411      45.55520297      54.65537873       1.90325135
      19.20000000      50.46326279      45.00000000      54.65441305       1.90321773
      19.30000000      50.29387038      45.00000000      54.65285779       1.90316357
      19.40000000      50.18078346      45.00000000      54.65188739       1.90312978
      19.50000000      50.06769479      45.00000000      54.65091492       1.90309591
      19.60000000      49.89829225      45.00000000      54.64934744       1.90304133
      19.70000000      49.78519897      45.00000000      54.64836954       1.90300727
      19.80000000      49.72841819      45.00000000      54.64798514       1.90299389
      19.90000000      49.55900598      45.56926041      54.64640835       1.90293898
      20.00000000      49.38959028      45.56926067      54.64482536       1.90288386
      20.10000000      49.27648876      44.43073914      54.64383797       1.90284947
      20.20000000      49.16338544      44.43073894      54.64284853       1.90281502
      20.30000000      49.05028031      44.43073875      54.64185706       1.90278049
      20.40000000      48.88085124      45.56926152      54.64025869       1.90272483
      20.50000000      48.76774246      45.00000000      54.63926111       1.90269009
      20.60000000      48.65463073      45.00000000      54.63826227       1.90265531
      20.70000000      48.54151715      45.00000000      54.63726142       1.90262046
      20.80000000      48.42840173      45.00000000      54.63625855       1.90258554
      20.90000000      48.31528444      45.00000000      54.63525366       1.90255054
      21.00000000      48.14583578      45.00000000      54.63363347       1.90249412
      21.10000000      48.08904425      45.00000000      54.63323789       1.90248035
      21.20000000      47.91958839      45.58404924      54.63161196       1.90242373
      21.30000000      47.80646245      44.41595055      54.63059781       1.90238841
      21.40000000      47.69333461      44.41595035      54.62958167       1.90235303
      21.50000000      47.58020486      44.41595014      54.62856355       1.90231757
      21.60000000      47.46707320      44.41594993      54.62754344       1.90228205
      21.70000000      47.35393962      44.41594972      54.62652136       1.90224646
      21.80000000      47.24080528      45.00000000      54.62549650       1.90221077
      21.90000000      47.12766783      45.00000000      54.62447047       1.90217504
      22.00000000      46.95818670      45.00000000      54.62281583       1.90211742
      22.10000000      46.84504417      45.00000000      54.62178464       1.90208151
      22.20000000      46.73189969      45.00000000      54.62075148       1.90204554
      22.30000000      46.61875323      45.00000000      54.61971638       1.90200949
      22.40000000      46.50560480      45.00000000      54.61867933       1.90197338
      22.50000000      46.39245315      45.59962677      54.61764117       1.90193723
      22.60000000      46.27930074      45.59962699      54.61660024       1.90190098
      22.70000000      46.16614632      44.40037279      54.61555737       1.90186466
      22.80000000      46.05298990      44.40037257      54.61451258       1.90182828
      22.90000000      45.93983146      44.40037235      54.61346586       1.90179183
      23.00000000      45.82667099      44.40037213      54.61241721       1.90175531
      23.10000000      45.71350972      45.00000000      54.61136583       1.90171870
      23.20000000      45.65670140      45.00000000      54.61095480       1.90170439
      23.30000000      45.54353604      45.00000000      54.60990164       1.90166772
      23.40000000      45.43036864      45.00000000      54.60884657       1.90163097
      23.50000000      45.31719917      45.00000000      54.60778960       1.90159417
      23.60000000      45.20402763      45.00000000      54.60673072       1.90155730
      23.70000000      45.09085401      45.00000000      54.60566996       1.90152036
      23.80000000      44.97767831      45.00000000      54.60460731       1.90148335
      23.90000000      44.86449922      44.38394197      54.60354363       1.90144631
      24.00000000      44.75131932      44.38394174      54.60247721       1.90140918
      24.10000000      44.63813730      45.61605850      54.60140891       1.90137197
      24.20000000      44.58132120      44.38394136      54.60099153       1.90135744
      24.30000000      44.46813622      45.61605888      54.59992069       1.90132015
      24.40000000      44.35494911      45.61605912      54.59884798       1.90128280
      24.50000000      44.18538925      45.00000000      54.59711618       1.90122249
      24.60000000      44.12856973      45.00000000      54.59669613       1.90120786
      24.70000000      44.01537617      45.00000000      54.59561785       1.90117031
      24.80000000      43.95855545      45.00000000      54.59519693       1.90115566
      24.90000000      43.84535885      45.00000000      54.59411615       1.90111802
      25.00000000      43.73216006      45.00000000      54.59303352       1.90108032
      25.10000000      43.61895908      45.00000000      54.59194906       1.90104256
      25.20000000      43.50575590      45.00000000      54.59086276       1.90100473
      25.30000000      43.44893000      45.63341493      54.59043990       1.90099000
      25.40000000      43.33572372      44.36658482      54.58935113       1.90095209
      25.50000000      43.22251523      44.36658457      54.58826053       1.90091411
      25.60000000      43.10930450      44.36658432      54.58716812       1.90087607
      25.70000000      43.05247693      44.36658416      54.58674222       1.90086124
      25.80000000      42.93926306      45.63341609      54.58564735       1.90082311
      25.90000000      42.82604693      44.36658365      54.58455068       1.90078492
      26.00000000      42.71282988      45.00000000      54.58345133       1.90074664
      26.10000000      42.65599925      45.00000000      54.58302332       1.90073174
      26.20000000      42.54277766      45.00000000      54.58192241       1.90069340
      26.30000000      42.42955378      45.00000000      54.58081972       1.90065500
      26.40000000      42.37272096      45.00000000      54.58039025       1.90064005
      26.50000000      42.25949385      45.00000000      54.57928514       1.90060156
      26.60000000      42.14626443      45.00000000      54.57817826       1.90056302
      26.70000000      42.08942939      45.00000000      54.57774733       1.90054801
      26.80000000      42.03259400      45.00000000      54.57731622       1.90053300
      26.90000000      41.86296026      45.65177858      54.57552792       1.90047073
      27.00000000      41.80612298      44.34822125      54.57509556       1.90045567
      27.10000000      41.69288465      45.65177902      54.57398214       1.90041690
      27.20000000      41.57964396      44.34822071      54.57286696       1.90037807
      27.30000000      41.52280440      45.65177945      54.57243317       1.90036296
      27.40000000      41.40956037      45.65177972      54.57131563       1.90032404
      27.50000000      41.29631536      45.00000000      54.57019545       1.90028504
      27.60000000      41.23947351      45.00000000      54.56976026       1.90026988
      27.70000000      41.12622371      45.00000000      54.56863863       1.90023082
      27.80000000      41.06938050      45.00000000      54.56820265       1.90021564
      27.90000000      40.95612730      45.00000000      54.56707869       1.90017650
      28.00000000      40.84287166      45.00000000      54.56595301       1.90013730
      28.10000000      40.78602611      45.00000000      54.56551565       1.90012207
      28.20000000      40.67276703      45.00000000      54.56438765       1.90008279
      28.30000000      40.61592010      45.00000000      54.56394951       1.90006754
      28.40000000      40.50265606      45.67123823      54.56282015       1.90002821
      28.50000000      40.44580775      44.32876159      54.56238124       1.90001292
      28.60000000      40.33254171      44.32876130      54.56124864       1.89997348
      28.70000000      40.21927318      45.67123899      54.56011435       1.89993398
      28.80000000      40.16242244      45.67123916      54.55967408       1.89991865
      28.90000000      40.04915038      44.32876055      54.55853752       1.89987907
      29.00000000      39.99229823      45.67123963      54.55809649       1.89986372
      29.10000000      39.87902409      45.00000000      54.55695673       1.89982403
      29.20000000      39.82217051      45.00000000      54.55651496       1.89980864
      29.30000000      39.70889130      45.00000000      54.55537388       1.89976891
      29.40000000      39.65203627      45.00000000      54.55493135       1.89975350
      29.50000000      39.53875345      45.00000000      54.55378803       1.89971368
      29.60000000      39.48189698      45.00000000      54.55334477       1.89969825
      29.70000000      39.36861052      45.00000000      54.55219921       1.89965836
      29.80000000      39.31175257      45.00000000      54.55175521       1.89964290
      29.90000000      39.25489422      45.00000000      54.55131105       1.89962743
      30.00000000      39.14160146      44.30810439      54.55016367       1.89958747
      30.10000000      39.08474163      44.30810420      54.54971878       1.89957198
      30.20000000      38.97144674      44.30810389      54.54856823       1.89953192
      30.30000000      38.91458541      44.30810370      54.54812261       1.89951640
      30.40000000      38.80128678      45.69189661      54.54696987       1.89947626
      30.50000000      38.74442395      44.30810321      54.54652353       1.89946071
      30.60000000      38.63112156      44.30810289      54.54536861       1.89942050
      30.70000000      38.51781805      45.00000000      54.54421112       1.89938019
      30.80000000      38.46095258      45.00000000      54.54376352       1.89936460
      30.90000000      38.40408669      45.00000000      54.54331576       1.89934901
      31.00000000      38.34722036      45.00000000      54.54286785       1.89933341
      31.10000000      38.23390925      45.00000000      54.54170806       1.89929303
      31.20000000      38.17704137      45.00000000      54.54125945       1.89927740
      31.30000000      38.06372640      45.00000000      54.54009751       1.89923694
      31.40000000      38.00685696      45.00000000      54.53964820       1.89922130
      31.50000000      37.94998706      45.00000000      54.53919875       1.89920565
      31.60000000      37.89311673      45.00000000      54.53874914       1.89918999
      31.70000000      37.77979395      45.71386480      54.53758499       1.89914945
      31.80000000      37.72292203      45.71386500      54.53713470       1.89913377
      31.90000000      37.60959695      45.71386533      54.53596745       1.89909312
      32.00000000      37.55272342      45.71386553      54.53551647       1.89907742
      32.10000000      37.43939437      45.71386587      54.53434712       1.89903670
      32.20000000      37.38251921      44.28613393      54.53389547       1.89902097
      32.30000000      37.32564360      44.28613373      54.53344368       1.89900524
      32.40000000      37.21230937      45.71386661      54.53227172       1.89896443
      32.50000000      37.15543374      45.00000000      54.53181828       1.89894864
      32.60000000      37.09855602      45.00000000      54.53136568       1.89893288
      32.70000000      36.98521654      45.00000000      54.53019114       1.89889198
      32.80000000      36.92833716      45.00000000      54.52973788       1.89887619
      32.90000000      36.87145730      45.00000000      54.52928448       1.89886040
      33.00000000      36.81457697      45.00000000      54.52883095       1.89884461
      33.10000000      36.70123098      45.00000000      54.52765332       1.89880360
      33.20000000      36.64434896      45.00000000      54.52719914       1.89878779
      33.30000000      36.58746645      45.00000000      54.52674481       1.89877196
      33.40000000      36.53058347      45.00000000      54.52629036       1.89875614
      33.50000000      36.41722915      45.73727485      54.52511071       1.89871506
      33.60000000      36.36034445      44.26272493      54.52465561       1.89869921
      33.70000000      36.30345926      44.26272472      54.52420038       1.89868336
      33.80000000      36.19010121      45.73727564      54.52301720       1.89864216
      33.90000000      36.13321428      45.73727586      54.52256133       1.89862628
      34.00000000      36.07632685      44.26272392      54.52210534       1.89861041
      34.10000000      36.01943892      44.26272371      54.52164922       1.89859452
      34.20000000      35.90607408      45.73727666      54.52046305       1.89855322
      34.30000000      35.79270788      45.00000000      54.51927442       1.89851182
      34.40000000      35.79229588      45.00000000      54.51954844       1.89852137
      34.50000000      35.73540517      45.00000000      54.51909144       1.89850545
      34.60000000      35.62203342      45.00000000      54.51790234       1.89846405
      34.70000000      35.56514091      45.00000000      54.51744473       1.89844811
      34.80000000      35.50824788      45.00000000      54.51698700       1.89843217
      34.90000000      35.45135433      45.00000000      54.51652914       1.89841623
      35.00000000      35.33797559      45.00000000      54.51533713       1.89837472
      35.10000000      35.28108021      45.00000000      54.51487868       1.89835875
      35.20000000      35.22418430      45.00000000      54.51442010       1.89834278
      35.30000000      35.16728606      45.76227193      54.51396245       1.89832685
      35.40000000      35.11038910      45.76227216      54.51350363       1.89831087
      35.50000000      34.99700191      44.23772745      54.51230827       1.89826924
      35.60000000      34.94010307      44.23772722      54.51184886       1.89825325
      35.70000000      34.88320370      45.76227301      54.51138934       1.89823724
      35.80000000      34.82630378      44.23772675      54.51092970       1.89822124
      35.90000000      34.76940332      45.76227348      54.51046995       1.89820523
      36.00000000      34.71250231      44.23772628      54.51001008       1.89818921
      36.10000000      34.59910514      45.76227411      54.50881097       1.89814746
      36.20000000      34.54220222      44.23772565      54.50835053       1.89813142
      36.30000000      34.48530052      45.00000000      54.50788896       1.89811535
      36.40000000      34.42839648      45.00000000      54.50742829       1.89809931
      36.50000000      34.37149188      45.00000000      54.50696752       1.89808326
      36.60000000      34.31458672      45.00000000      54.50650663       1.89806722
      36.70000000      34.20117934      45.00000000      54.50530386       1.89802533
      36.80000000      34.14427221      45.00000000      54.50484242       1.89800926
      36.90000000      34.08736450      45.00000000      54.50438087       1.89799319
      37.00000000      34.03045623      45.00000000      54.50391921       1.89797711
      37.10000000      33.97354738      45.00000000      54.50345745       1.89796103
      37.20000000      33.91663795      45.00000000      54.50299558       1.89794495
      37.30000000      33.85972604      44.21097628      54.50253468       1.89792890
      37.40000000      33.80281545      44.21097603      54.50207260       1.89791281
      37.50000000      33.68939472      45.78902439      54.50086535       1.89787077
      37.60000000      33.63248209      44.21097535      54.50040274       1.89785466
      37.70000000      33.57556886      44.21097510      54.49994002       1.89783855
      37.80000000      33.51865504      44.21097485      54.49947721       1.89782243
      37.90000000      33.46174062      44.21097459      54.49901429       1.89780631
      38.00000000      33.40482560      45.78902566      54.49855128       1.89779019
      38.10000000      33.34790998      45.78902592      54.49808817       1.89777406
      38.20000000      33.29099375      45.78902617      54.49762497       1.89775793
      38.30000000      33.17756110      45.00000000      54.49641234       1.89771570
      38.40000000      33.17716133      45.00000000      54.49669723       1.89772562
      38.50000000      33.12024326      45.00000000      54.49623374       1.89770948
      38.60000000      33.00680422      45.00000000      54.49502090       1.89766725
      38.70000000      32.94988401      45.00000000      54.49455690       1.89765109
      38.80000000      32.89296318      45.00000000      54.49409280       1.89763493
      38.90000000      32.83604173      45.00000000      54.49362862       1.89761877
      39.00000000      32.77911964      45.00000000      54.49316435       1.89760260
      39.10000000      32.72219691      45.00000000      54.49269999       1.89758643
      39.20000000      32.66527355      45.00000000      54.49223554       1.89757026
      39.30000000      32.60834955      45.00000000      54.49177100       1.89755408
      39.40000000      32.60795253      45.00000000      54.49205819       1.89756408
      39.50000000      32.49449762      45.81772172      54.49084274       1.89752176
      39.60000000      32.43757168      44.18227800      54.49037794       1.89750557
      39.70000000      32.38064509      44.18227773      54.48991306       1.89748938
      39.80000000      32.32371785      44.18227746      54.48944809       1.89747319
      39.90000000      32.26678995      44.18227718      54.48898304       1.89745700
      40.00000000      32.20986138      44.18227691      54.48851790       1.89744080
