 # applied field (T), theta (degree), phi (degree), abs for RE 1-2
     0.00000     0.00000     0.00000     4.69615     0.00000     0.00000     4.69615
     0.01000     0.04668   360.00000     4.69615     0.04668   360.00000     4.69615
     0.02000     0.04705   360.00000     4.69615     0.04705   360.00000     4.69615
     0.03000     0.09373   360.00000     4.69615     0.09373   360.00000     4.69615
     0.04000     0.14042   360.00000     4.69615     0.14042   360.00000     4.69615
     0.05000     0.14079   360.00000     4.69615     0.14079   360.00000     4.69615
     0.06000     0.18747   360.00000     4.69615     0.18747   360.00000     4.69615
     0.07000     0.23416   360.00000     4.69615     0.23416   360.00000     4.69615
     0.08000     0.28084   360.00000     4.69615     0.28084   360.00000     4.69615
     0.09000     0.28121   360.00000     4.69615     0.28121   360.00000     4.69615
     0.10000     0.32789   360.00000     4.69615     0.32789   360.00000     4.69615
     0.11000     0.37458   360.00000     4.69615     0.37458   360.00000     4.69615
     0.12000     0.37495   360.00000     4.69615     0.37495   360.00000     4.69615
     0.13000     0.42163   360.00000     4.69615     0.42163   360.00000     4.69615
     0.14000     0.46832   360.00000     4.69615     0.46832   360.00000     4.69615
     0.15000     0.46869   360.00000     4.69615     0.46869   360.00000     4.69615
     0.16000     0.51538   360.00000     4.69615     0.51538   360.00000     4.69615
     0.17000     0.56207   360.00000     4.69615     0.56207   360.00000     4.69615
     0.18000     0.60876   360.00000     4.69614     0.60876   360.00000     4.69614
     0.19000     0.60912   360.00000     4.69614     0.60912   360.00000     4.69614
     0.20000     0.65581   360.00000     4.69614     0.65581   360.00000     4.69614
     0.21000     0.70251   360.00000     4.69614     0.70251   360.00000     4.69614
     0.22000     0.70287   360.00000     4.69614     0.70287   360.00000     4.69614
